Participant,Session,Block,Trial,OnsetDelay,Bias,Shape1,Shape2,Response1,Response2,RT1,RT2
MGB1986W,2019-06-06-13-20-32,0,0,0.6417474668722272,right,stripes-2,stripes-8,left,left,7.511253660308398,0.3357992471643456
MGB1986W,2019-06-06-13-20-32,0,1,0.5995115396489211,right,heavy poles sphere,stripes-2,left,left,9.696025844203405,0.26366909070100064
MGB1986W,2019-06-06-13-20-32,0,2,0.6010087899192822,left,stripes-2,heavy poles sphere,left,left,0.8270129519563625,0.31980895491199135
MGB1986W,2019-06-06-13-20-32,0,3,0.6183189857963108,left,stripes-8,stripes-2,left,left,0.5707198337094042,0.3518315225639981
MGB1986W,2019-06-06-13-20-32,0,4,0.651053030627673,left,heavy poles sphere,stripes-8,left,left,2.851821260016891,0.3117855090347348
MGB1986W,2019-06-06-13-20-32,0,5,0.5168839688889152,left,stripes-4,stripes-2,left,left,1.2055000410501862,0.5997174378711634
MGB1986W,2019-06-06-13-20-32,0,6,0.5481231425701567,left,stripes-4,stripes-4,left,left,0.5733134592371698,0.24783211468172794
MGB1986W,2019-06-06-13-20-32,0,7,0.627344901316152,left,stripes-2,stripes-2,left,left,0.6419770517007919,0.2398099127497062
MGB1986W,2019-06-06-13-20-32,0,8,0.5260767927228586,left,stripes-8,stripes-8,left,left,1.040614807424845,0.25581171149428883
MGB1986W,2019-06-06-13-20-32,0,9,0.6637546685606637,right,stripes-4,heavy poles sphere,left,left,0.40953004998164033,0.2718592252213057
MGB1986W,2019-06-06-13-20-32,0,10,0.6128692022403927,right,heavy poles sphere,heavy poles sphere,left,left,1.2316574075686049,0.26395239919690994
MGB1986W,2019-06-06-13-20-32,0,11,0.5955169317194161,left,stripes-8,heavy poles sphere,left,left,3.819098973247719,0.27167792022328285
MGB1986W,2019-06-06-13-20-32,0,12,0.5605547148403851,right,heavy poles sphere,stripes-4,left,left,0.566518098157303,0.24785326174844613
MGB1986W,2019-06-06-13-20-32,0,13,0.5281279204481893,left,stripes-4,stripes-8,left,left,0.5680503275308411,0.2558449870256254
MGB1986W,2019-06-06-13-20-32,0,14,0.5848555373994578,left,stripes-2,stripes-4,left,left,0.5827649540859738,0.2396886281027264
MGB1986W,2019-06-06-13-20-32,0,15,0.5281108048424132,left,stripes-8,stripes-4,left,left,0.8307000052245712,0.24790986125026393
MGB1986W,2019-06-06-13-20-32,0,16,0.5943744212833862,left,heavy poles sphere,stripes-8,left,left,0.6832996638860322,0.255733653939501
MGB1986W,2019-06-06-13-20-32,0,17,0.6382275739486875,left,stripes-2,stripes-2,left,left,0.7551542865104466,0.2636837070558613
MGB1986W,2019-06-06-13-20-32,0,18,0.666878840954236,right,stripes-2,heavy poles sphere,left,left,0.18356462419171748,0.2557659965119683
MGB1986W,2019-06-06-13-20-32,0,19,0.605194402262988,left,stripes-4,stripes-4,left,left,0.6371872411039021,0.30381213194777956
MGB1986W,2019-06-06-13-20-32,0,20,0.5734156679265873,right,stripes-4,stripes-8,left,left,0.40783237591028865,0.27186171311143426
MGB1986W,2019-06-06-13-20-32,0,21,0.5141811905644268,left,stripes-8,stripes-8,left,left,0.7274681114674877,0.2558474749158677
MGB1986W,2019-06-06-13-20-32,0,22,0.5015854217202905,left,stripes-2,stripes-4,left,left,0.41944273747537864,0.25586053633935535
MGB1986W,2019-06-06-13-20-32,0,23,0.6804612522962916,left,heavy poles sphere,stripes-4,left,left,0.41343417166933705,0.24781376649150388
MGB1986W,2019-06-06-13-20-32,0,24,0.5591483047425725,right,heavy poles sphere,heavy poles sphere,left,left,1.0942375487315985,0.2878588470618979
MGB1986W,2019-06-06-13-20-32,0,25,0.5107601105895105,left,stripes-8,heavy poles sphere,left,left,0.6579465078730209,0.25582290700015164
MGB1986W,2019-06-06-13-20-32,0,26,0.6753917809431282,left,stripes-2,stripes-8,left,left,0.3212799199893652,0.2558064247276661
MGB1986W,2019-06-06-13-20-32,0,27,0.5082165358175563,right,stripes-4,heavy poles sphere,left,left,0.2941242875303942,0.2558151323432867
MGB1986W,2019-06-06-13-20-32,0,28,0.6091535748688569,right,stripes-4,stripes-2,left,left,0.25505135005357715,0.2398151995163289
MGB1986W,2019-06-06-13-20-32,0,29,0.5827532708374665,right,stripes-8,stripes-2,left,left,0.04270898899608255,0.255809845576664
MGB1986W,2019-06-06-13-20-32,0,30,0.5300962571752375,left,heavy poles sphere,stripes-2,left,left,2.010519732701141,0.24772669033472994
MGB1986W,2019-06-06-13-20-32,0,31,0.671285472309604,left,stripes-8,stripes-4,left,left,1.555208771305729,0.2639166357753311
MGB1986W,2019-06-06-13-20-32,0,32,0.5345273778330577,right,stripes-4,stripes-2,left,left,0.45848302139336283,0.2799321179160188
MGB1986W,2019-06-06-13-20-32,0,33,0.5053922942743512,left,stripes-4,stripes-8,left,left,0.42404377940374616,0.26376238658326656
MGB1986W,2019-06-06-13-20-32,0,34,0.6367476612257992,left,heavy poles sphere,stripes-2,left,left,0.4900901113828695,0.2719459903917141
MGB1986W,2019-06-06-13-20-32,0,35,0.6874518390676854,left,stripes-2,heavy poles sphere,left,left,0.21547896862023208,0.26381369931857535
MGB1986W,2019-06-06-13-20-32,0,36,0.6134214284569866,left,stripes-4,stripes-4,left,left,0.5145165282984863,0.27969203651230146
MGB1986W,2019-06-06-13-20-32,0,37,0.6881287244891195,right,stripes-2,stripes-8,left,left,0.1744465066288967,3.543537145444475
MGB1986W,2019-06-06-13-20-32,0,38,0.6533846730962933,left,heavy poles sphere,stripes-4,left,left,0.23727039883362977,0.26381587622245206
MGB1986W,2019-06-06-13-20-32,0,39,0.6062935753236144,right,stripes-4,heavy poles sphere,left,left,0.3295577526390616,0.2718290595526014
MGB1986W,2019-06-06-13-20-32,0,40,0.5314983227988506,left,stripes-2,stripes-4,left,left,0.2679631891767258,0.27167729825077913
MGB1986W,2019-06-06-13-20-32,0,41,0.6808524847848009,left,stripes-8,stripes-2,left,left,0.3860076701654407,0.2719058731623818
MGB1986W,2019-06-06-13-20-32,0,42,0.625907943759547,right,heavy poles sphere,stripes-8,left,left,0.5268014190925214,0.28778980810909616
MGB1986W,2019-06-06-13-20-32,0,43,0.5248144052276481,right,stripes-8,stripes-4,left,left,0.6561881914780088,0.29581076609599677
MGB1986W,2019-06-06-13-20-32,0,44,0.505586450850004,left,stripes-8,stripes-8,left,left,0.389042274230178,0.2637235132990554
MGB1986W,2019-06-06-13-20-32,0,45,0.5136331132276875,right,heavy poles sphere,heavy poles sphere,left,left,0.5119788803001484,0.31160482600944306
MGB1986W,2019-06-06-13-20-32,0,46,0.5513219539083839,left,stripes-2,stripes-2,left,right,1.0079544069242274,0.3357171467880562
MGB1986W,2019-06-06-13-20-32,0,47,0.6863166285189949,left,stripes-8,heavy poles sphere,left,left,0.49477605256413426,0.27184305393495833
MGB1986W,2019-06-06-13-20-32,1,0,0.6873133982162649,right,stripes-4,heavy poles sphere,left,left,0.33469897772590684,0.25587639663933714
MGB1986W,2019-06-06-13-20-32,1,1,0.5575177593765068,right,stripes-4,stripes-8,left,left,0.31964257725519474,0.2558241509452728
MGB1986W,2019-06-06-13-20-32,1,2,0.5674596991275616,right,stripes-8,stripes-4,left,left,0.4250364475913102,0.25584778590211954
MGB1986W,2019-06-06-13-20-32,1,3,0.6533748340511828,right,stripes-2,heavy poles sphere,left,left,0.020112104332156377,0.2796690235279584
MGB1986W,2019-06-06-13-20-32,1,4,0.6957752905159033,right,heavy poles sphere,stripes-2,left,left,0.3724374730996942,0.27974179431612356
MGB1986W,2019-06-06-13-20-32,1,5,0.6002478908511836,left,stripes-4,stripes-2,left,left,0.29660347010917576,0.25578745456493834
MGB1986W,2019-06-06-13-20-32,1,6,0.6688775465830408,right,heavy poles sphere,stripes-8,left,left,0.4794963639484422,0.28779509487571886
MGB1986W,2019-06-06-13-20-32,1,7,0.5480432136792517,left,stripes-8,stripes-2,left,left,0.35411322885852314,0.2719789549369125
MGB1986W,2019-06-06-13-20-32,1,8,0.5733880698499457,left,stripes-2,stripes-8,left,left,0.24977888875889676,3.5836245201481916
MGB1986W,2019-06-06-13-20-32,1,9,0.643001645817205,left,stripes-8,heavy poles sphere,left,left,0.4124355947425329,0.27195065518583306
MGB1986W,2019-06-06-13-20-32,1,10,0.6936768102600448,right,stripes-2,stripes-4,left,left,0.17246925589688544,0.2638217849616922
MGB1986W,2019-06-06-13-20-32,1,11,0.568342988674038,left,heavy poles sphere,stripes-4,left,left,0.10025357820802583,0.2717914302135114
MGB1986W,2019-06-06-13-20-32,1,12,0.536420106761549,right,stripes-2,stripes-2,left,left,1.0633084088200349,0.2718159981291137
MGB1986W,2019-06-06-13-20-32,1,13,0.6688753153025991,left,heavy poles sphere,heavy poles sphere,left,left,0.3995766232861797,0.28781095517558697
MGB1986W,2019-06-06-13-20-32,1,14,0.5217046175236518,left,stripes-8,stripes-8,left,left,0.49448248152111773,0.2797436602337484
MGB1986W,2019-06-06-13-20-32,1,15,0.6862944736336881,left,stripes-4,stripes-4,left,left,0.5950557536192491,0.29581760779410615
MGB1986W,2019-06-06-13-20-32,1,16,0.553886160180099,left,stripes-8,stripes-2,left,left,0.3437073171338625,0.2638012598675914
MGB1986W,2019-06-06-13-20-32,1,17,0.6352073741300515,left,stripes-4,heavy poles sphere,left,left,0.22191669548465143,0.2719351058722168
MGB1986W,2019-06-06-13-20-32,1,18,0.6626876920467648,left,stripes-8,stripes-4,left,left,0.47879757779014653,0.2558241509452728
MGB1986W,2019-06-06-13-20-32,1,19,0.621893494177745,left,heavy poles sphere,stripes-2,left,left,0.4243417042545161,0.27166361485467405
MGB1986W,2019-06-06-13-20-32,1,20,0.6201850300923231,right,stripes-4,stripes-2,left,left,0.2823484812673769,0.23992342273982104
MGB1986W,2019-06-06-13-20-32,1,21,0.5566263838247223,right,heavy poles sphere,heavy poles sphere,left,left,0.6486119438632159,0.2318032601313007
MGB1986W,2019-06-06-13-20-32,1,22,0.6250196323076704,right,stripes-8,stripes-8,left,left,1.210522158394042,0.27180604656837204
MGB1986W,2019-06-06-13-20-32,1,23,0.6898714330527624,left,stripes-4,stripes-8,left,left,0.4659625522767783,0.24784486511907744
MGB1986W,2019-06-06-13-20-32,1,24,0.5495163920638866,right,stripes-4,stripes-4,left,left,0.6387776249107446,0.2798266935690208
MGB1986W,2019-06-06-13-20-32,1,25,0.6243876221386296,left,stripes-8,heavy poles sphere,left,left,0.3293832893391482,0.27180231473300864
MGB1986W,2019-06-06-13-20-32,1,26,0.6344597112952307,right,heavy poles sphere,stripes-8,left,left,1.1283574078174752,0.2558375233550123
MGB1986W,2019-06-06-13-20-32,1,27,0.512522180145529,right,stripes-2,heavy poles sphere,left,left,0.3727232694858458,0.23971661686744028
MGB1986W,2019-06-06-13-20-32,1,28,0.6084531726532239,right,heavy poles sphere,stripes-4,left,left,0.6674741943588742,0.27191240387412563
MGB1986W,2019-06-06-13-20-32,1,29,0.602589370015636,right,stripes-2,stripes-8,left,left,0.3645943992615912,0.23986962211438367
MGB1986W,2019-06-06-13-20-32,1,30,0.5093800606071436,right,stripes-2,stripes-2,left,left,0.7429278611358541,0.2799296300258902
MGB1986W,2019-06-06-13-20-32,1,31,0.637885144587779,right,stripes-2,stripes-4,left,left,0.4107136637418307,0.2478187422719884
MGB1986W,2019-06-06-13-20-32,1,32,0.5271839765757802,right,heavy poles sphere,stripes-4,left,left,0.3716410372512655,0.23980897979095062
MGB1986W,2019-06-06-13-20-32,1,33,0.6791987130577525,left,stripes-8,stripes-8,left,left,1.0790474241629227,0.27178272259777714
MGB1986W,2019-06-06-13-20-32,1,34,0.6594208519921377,left,stripes-8,stripes-2,left,left,0.469258695798203,0.2558412551903757
MGB1986W,2019-06-06-13-20-32,1,35,0.5443726683263501,left,stripes-4,stripes-2,left,left,0.33741357691440044,0.2558011379610434
MGB1986W,2019-06-06-13-20-32,1,36,0.5103794100424044,left,stripes-4,stripes-8,left,left,0.2836941188762694,0.2477985281641395
MGB1986W,2019-06-06-13-20-32,1,37,0.602499772516332,left,heavy poles sphere,heavy poles sphere,left,left,0.4872890580101057,0.27984970655336383
MGB1986W,2019-06-06-13-20-32,1,38,0.5088815656360216,left,stripes-2,stripes-4,left,left,0.4274512560112953,0.2398512739241596
MGB1986W,2019-06-06-13-20-32,1,39,0.628427253466975,left,stripes-2,stripes-2,left,right,0.7110222243231874,0.4557211522912894
MGB1986W,2019-06-06-13-20-32,1,40,0.5136477800873498,right,stripes-2,stripes-8,left,left,0.6188129280726571,0.22381122386775587
MGB1986W,2019-06-06-13-20-32,1,41,0.6048135491490805,left,stripes-4,heavy poles sphere,left,left,0.39286336258271604,0.2317062324136714
MGB1986W,2019-06-06-13-20-32,1,42,0.6002968494637989,right,stripes-4,stripes-4,left,left,0.5661626408456186,0.2557442274728601
MGB1986W,2019-06-06-13-20-32,1,43,0.5563488898991535,left,stripes-8,stripes-4,left,left,0.5175965363591786,0.23978534483399017
MGB1986W,2019-06-06-13-20-32,1,44,0.5483475913505327,right,heavy poles sphere,stripes-2,left,left,0.5537701488007087,0.24781314451911385
MGB1986W,2019-06-06-13-20-32,1,45,0.5401373939988517,right,stripes-8,heavy poles sphere,left,left,0.46853938454580657,0.23992715457507074
MGB1986W,2019-06-06-13-20-32,1,46,0.5031465515160078,right,stripes-2,heavy poles sphere,left,left,0.25202576459082593,0.24782309607985553
MGB1986W,2019-06-06-13-20-32,1,47,0.5323843967047989,right,heavy poles sphere,stripes-8,left,left,0.39513636126150686,0.22385942674031867
MGB1986W,2019-06-06-13-20-32,2,0,0.6018722904106821,right,stripes-8,heavy poles sphere,left,left,0.31280896486350684,0.23987459789475452
MGB1986W,2019-06-06-13-20-32,2,1,0.5003029721965306,left,stripes-4,stripes-2,left,left,0.38184014310343173,0.23993555120443943
MGB1986W,2019-06-06-13-20-32,2,2,0.5383416101237266,right,stripes-8,stripes-4,left,left,0.43880505390006874,0.25585680450410564
MGB1986W,2019-06-06-13-20-32,2,3,0.5309587557066222,right,heavy poles sphere,stripes-4,left,left,0.3823579352501838,0.23974864845365573
MGB1986W,2019-06-06-13-20-32,2,4,0.5354317871692129,left,stripes-2,stripes-2,left,left,0.390478408844956,0.2558533836551078
MGB1986W,2019-06-06-13-20-32,2,5,0.6157689777216575,left,stripes-8,stripes-2,left,left,1.2263616223033296,0.2558104675492814
MGB1986W,2019-06-06-13-20-32,2,6,0.6536021524977658,left,heavy poles sphere,heavy poles sphere,left,left,0.886057738955742,0.27178023470764856
MGB1986W,2019-06-06-13-20-32,2,7,0.6300079808102241,left,stripes-4,stripes-8,left,left,0.22112523541659357,0.24786228035054592
MGB1986W,2019-06-06-13-20-32,2,8,0.6422265678267742,left,stripes-4,stripes-4,left,left,0.4640223089113533,0.27181817503287675
MGB1986W,2019-06-06-13-20-32,2,9,0.6038583480615997,left,heavy poles sphere,stripes-2,left,left,0.33084803469114377,0.2318063699940467
MGB1986W,2019-06-06-13-20-32,2,10,0.5842022665112917,right,stripes-2,heavy poles sphere,left,left,0.2376031541471093,4.527552450944995
MGB1986W,2019-06-06-13-20-32,2,11,0.5092492396427264,right,stripes-4,heavy poles sphere,left,left,0.2798823601121967,0.2877779906307296
MGB1986W,2019-06-06-13-20-32,2,12,0.6096226030758657,left,stripes-8,stripes-8,left,left,0.7280872851397362,0.3118259372504326
MGB1986W,2019-06-06-13-20-32,2,13,0.5385380345370542,right,heavy poles sphere,stripes-8,left,left,0.5053729098613076,0.31179390566421716
MGB1986W,2019-06-06-13-20-32,2,14,0.6017628479503556,left,stripes-2,stripes-4,left,left,0.3354052275549293,0.2718418099898372
MGB1986W,2019-06-06-13-20-32,2,15,0.528442228328373,left,stripes-2,stripes-8,left,left,0.36094684125009735,0.2638485297813986
MGB1986W,2019-06-06-13-20-32,2,16,0.5486136226086599,right,stripes-4,heavy poles sphere,left,left,0.32256864711030175,0.25580860163154284
MGB1986W,2019-06-06-13-20-32,2,17,0.6878591336888963,left,heavy poles sphere,heavy poles sphere,left,left,0.6734034586650068,0.27980803439277224
MGB1986W,2019-06-06-13-20-32,2,18,0.5015628485666821,left,stripes-2,heavy poles sphere,left,left,0.8632960315662785,0.2557644415805953
MGB1986W,2019-06-06-13-20-32,2,19,0.5493711629869135,left,stripes-2,stripes-2,left,right,0.45207110638966697,0.5036988707468026
MGB1986W,2019-06-06-13-20-32,2,20,0.6995906570300838,left,stripes-8,stripes-8,right,left,1.0963637618890516,0.48777512955689417
MGB1986W,2019-06-06-13-20-32,2,21,0.6226336760705058,right,stripes-4,stripes-8,left,left,0.39841446757918675,0.27996010668084637
MGB1986W,2019-06-06-13-20-32,2,22,0.5631609724679323,right,stripes-8,stripes-2,left,left,0.42795785265207087,0.2878604019933846
MGB1986W,2019-06-06-13-20-32,2,23,0.5017570225960207,left,stripes-8,heavy poles sphere,left,left,0.49945266415716105,0.24784331018759076
MGB1986W,2019-06-06-13-20-32,2,24,0.5031853560253705,left,stripes-2,stripes-4,left,left,0.49696508494889713,0.2878059793952161
MGB1986W,2019-06-06-13-20-32,2,25,0.6116221015489096,right,heavy poles sphere,stripes-4,left,left,0.305750509395466,0.2797797346415791
MGB1986W,2019-06-06-13-20-32,2,26,0.6940068811046065,right,heavy poles sphere,stripes-2,left,left,0.29520372088859403,0.2478339805993528
MGB1986W,2019-06-06-13-20-32,2,27,0.6143140591787358,left,stripes-4,stripes-2,left,left,0.3122292864482006,0.23167046899220622
MGB1986W,2019-06-06-13-20-32,2,28,0.522117072752392,right,heavy poles sphere,stripes-8,left,left,0.23711179583369812,0.2479453136857046
MGB1986W,2019-06-06-13-20-32,2,29,0.6108359272832777,left,stripes-8,stripes-4,left,left,0.29670360768955106,0.25580766867278726
MGB1986W,2019-06-06-13-20-32,2,30,0.6261585970639532,right,stripes-2,stripes-8,left,left,0.29708860869709497,0.24763743727407928
MGB1986W,2019-06-06-13-20-32,2,31,0.5600040773022947,left,stripes-4,stripes-4,left,left,0.3879734144052236,0.2797228241533958
MGB1986W,2019-06-06-13-20-32,2,32,0.6579937620317249,left,stripes-8,stripes-4,left,left,0.6219013327627181,0.2638451089321734
MGB1986W,2019-06-06-13-20-32,2,33,0.6184923858949964,left,stripes-2,stripes-8,left,left,0.41601380281485945,0.2558005159885397
MGB1986W,2019-06-06-13-20-32,2,34,0.6754000626957188,left,stripes-8,stripes-8,left,left,1.4652578573793562,0.2717883203506517
MGB1986W,2019-06-06-13-20-32,2,35,0.566877843470539,right,heavy poles sphere,heavy poles sphere,left,left,0.44530839886851936,0.2797679171630989
MGB1986W,2019-06-06-13-20-32,2,36,0.5409719517612631,left,heavy poles sphere,stripes-8,left,left,0.3229178846963805,0.25580922360404657
MGB1986W,2019-06-06-13-20-32,2,37,0.6873450115145165,right,stripes-2,heavy poles sphere,left,left,0.40839121824524227,0.26371729357356344
MGB1986W,2019-06-06-13-20-32,2,38,0.5273299032085704,left,stripes-2,stripes-4,left,left,0.2718592252210783,0.23989823285160128
MGB1986W,2019-06-06-13-20-32,2,39,0.6042284398727285,right,stripes-4,stripes-2,left,left,0.3622082015788237,0.27971069568889106
MGB1986W,2019-06-06-13-20-32,2,40,0.695807588148563,left,stripes-4,heavy poles sphere,left,left,0.30083226146734887,0.2638600362733996
MGB1986W,2019-06-06-13-20-32,2,41,0.5836751684219017,left,stripes-8,stripes-2,left,left,0.27045387824750833,0.24781594339560797
MGB1986W,2019-06-06-13-20-32,2,42,0.6454614029888655,left,heavy poles sphere,stripes-4,left,left,0.3767281507264215,0.2477916864661438
MGB1986W,2019-06-06-13-20-32,2,43,0.6027640037124499,right,stripes-2,stripes-2,left,left,1.2141799789524157,0.2877888751502269
MGB1986W,2019-06-06-13-20-32,2,44,0.5296018608147419,right,stripes-4,stripes-8,left,left,0.25971365627810883,0.2557983390845493
MGB1986W,2019-06-06-13-20-32,2,45,0.5394183702204555,right,stripes-4,stripes-4,left,left,1.0566542355086312,0.3118389986739203
MGB1986W,2019-06-06-13-20-32,2,46,0.5626942298141612,left,heavy poles sphere,stripes-2,left,left,0.3476680383234907,0.24795775313668855
MGB1986W,2019-06-06-13-20-32,2,47,0.6258512224701541,left,stripes-8,heavy poles sphere,left,left,0.4184998270916367,0.2718094674173699
MGB1986W,2019-06-06-13-20-32,3,0,0.5332081749490594,right,stripes-2,stripes-4,left,left,0.4577357213761388,0.2637085859578292
MGB1986W,2019-06-06-13-20-32,3,1,0.5615402143607355,right,stripes-8,stripes-2,left,left,0.04573022065096666,4.039555277188356
MGB1986W,2019-06-06-13-20-32,3,2,0.6376039381500171,right,stripes-4,stripes-8,left,left,0.2929437836332909,0.3277985032852939
MGB1986W,2019-06-06-13-20-32,3,3,0.6692670496179545,right,stripes-2,stripes-2,left,left,1.2956478092883117,0.25585307266874224
MGB1986W,2019-06-06-13-20-32,3,4,0.6619335075210315,right,stripes-2,heavy poles sphere,left,left,0.031108578991734248,0.26384386498716594
MGB1986W,2019-06-06-13-20-32,3,5,0.560976773773231,right,stripes-4,heavy poles sphere,left,left,0.27756893321770804,0.23985220688314257
MGB1986W,2019-06-06-13-20-32,3,6,0.6605235296254811,left,heavy poles sphere,stripes-4,left,left,0.3192261666338254,0.2478112786013753
MGB1986W,2019-06-06-13-20-32,3,7,0.6677423767473047,left,heavy poles sphere,stripes-8,left,left,0.261404799637603,0.23194631381738873
MGB1986W,2019-06-06-13-20-32,3,8,0.6343460135045479,left,heavy poles sphere,heavy poles sphere,left,left,0.313697452649194,0.24783553553083948
MGB1986W,2019-06-06-13-20-32,3,9,0.6199370405520896,right,heavy poles sphere,stripes-2,left,right,0.7305599370065465,0.4238173813962476
MGB1986W,2019-06-06-13-20-32,3,10,0.601852909508268,right,stripes-8,stripes-8,left,left,1.2349818508409953,0.255782789770592
MGB1986W,2019-06-06-13-20-32,3,11,0.588391572169616,left,stripes-8,heavy poles sphere,left,left,0.3031687013460669,0.25579865007080116
MGB1986W,2019-06-06-13-20-32,3,12,0.5400679981162043,right,stripes-8,stripes-4,left,left,0.48272875528368786,0.27197771099190504
MGB1986W,2019-06-06-13-20-32,3,13,0.6564606754569218,right,stripes-4,stripes-2,left,left,0.7454844792969197,0.2877745697815044
MGB1986W,2019-06-06-13-20-32,3,14,0.6375843715710222,right,stripes-4,stripes-4,left,left,0.9013570197066656,0.27168693882526895
MGB1986W,2019-06-06-13-20-32,3,15,0.5900126001358169,left,stripes-2,stripes-8,left,left,0.2769677967494317,0.24779821717788764
MGB1986W,2019-06-06-13-20-32,3,16,0.6803170475993987,left,stripes-2,heavy poles sphere,left,left,0.17321655591399576,0.23999930339073217
MGB1986W,2019-06-06-13-20-32,3,17,0.5810508415460328,right,stripes-2,stripes-8,left,left,0.25954323579981065,0.24784455413282558
MGB1986W,2019-06-06-13-20-32,3,18,0.5843249692035666,left,heavy poles sphere,stripes-4,left,left,0.463824521640845,0.24795961905419972
MGB1986W,2019-06-06-13-20-32,3,19,0.5601267603515525,right,stripes-4,stripes-8,left,left,0.0040067471582005965,0.26383111454993013
MGB1986W,2019-06-06-13-20-32,3,20,0.6372000859440858,left,heavy poles sphere,stripes-8,left,left,0.3917546965146812,0.26396297273004166
MGB1986W,2019-06-06-13-20-32,3,21,0.5517584026311343,right,stripes-8,stripes-8,left,left,0.6147439836595368,0.26367282253613666
MGB1986W,2019-06-06-13-20-32,3,22,0.5627691175330461,right,stripes-4,stripes-2,left,left,0.372094766225473,0.255810467549054
MGB1986W,2019-06-06-13-20-32,3,23,0.6642397195600452,right,stripes-8,stripes-4,left,left,0.5752446840006087,0.25581140050803697
MGB1986W,2019-06-06-13-20-32,3,24,0.6203468378808565,left,stripes-4,stripes-4,left,left,0.6114910672301903,0.255842188149245
MGB1986W,2019-06-06-13-20-32,3,25,0.5705221949593451,left,heavy poles sphere,stripes-2,left,left,0.018233436248920043,0.2558316146157722
MGB1986W,2019-06-06-13-20-32,3,26,0.6769138015998923,right,stripes-4,heavy poles sphere,left,left,0.5564828820715775,0.23981022373595806
MGB1986W,2019-06-06-13-20-32,3,27,0.6949559135586535,right,stripes-8,stripes-2,left,left,0.10380504146064595,0.25587204283147
MGB1986W,2019-06-06-13-20-32,3,28,0.515361016727104,right,stripes-2,stripes-2,left,left,0.7322221586427986,0.2639520882105444
MGB1986W,2019-06-06-13-20-32,3,29,0.5636261327478677,left,stripes-2,stripes-4,left,left,0.40415123138132003,0.279920922410156
MGB1986W,2019-06-06-13-20-32,3,30,0.5827540076694183,left,heavy poles sphere,heavy poles sphere,left,left,0.4750194055436623,0.2639517772245199
MGB1986W,2019-06-06-13-20-32,3,31,0.6038055541104049,left,stripes-8,heavy poles sphere,left,left,0.22985026632863992,0.24784548709158116
MGB1986W,2019-06-06-13-20-32,3,32,0.593280410552279,left,heavy poles sphere,heavy poles sphere,left,left,0.6201479921480768,0.2799405145453875
MGB1986W,2019-06-06-13-20-32,3,33,0.5850762106446342,right,stripes-2,stripes-4,left,left,0.36011495296634166,0.24779137547989194
MGB1986W,2019-06-06-13-20-32,3,34,0.5201412046619525,left,stripes-4,stripes-4,left,left,0.3465379142025995,0.23967338977513464
MGB1986W,2019-06-06-13-20-32,3,35,0.6936952858937744,left,stripes-4,stripes-8,left,left,0.2378625166998063,0.23995327742227346
MGB1986W,2019-06-06-13-20-32,3,36,0.6875242105683611,left,stripes-4,heavy poles sphere,left,left,0.15069586288745995,3.383689889463085
MGB1986W,2019-06-06-13-20-32,3,37,0.5696815254957605,left,stripes-8,stripes-2,left,left,0.3751701094920463,0.2558723538177219
MGB1986W,2019-06-06-13-20-32,3,38,0.6037854592506978,right,heavy poles sphere,stripes-8,left,left,0.2541572645150154,0.24770461030925617
MGB1986W,2019-06-06-13-20-32,3,39,0.6183162489670416,right,heavy poles sphere,stripes-2,left,left,0.20178095619576197,0.24772575737597435
MGB1986W,2019-06-06-13-20-32,3,40,0.5786043559783507,right,stripes-4,stripes-2,left,left,0.18415332120889616,0.25582259601401347
MGB1986W,2019-06-06-13-20-32,3,41,0.5129120002367024,left,heavy poles sphere,stripes-4,left,left,0.12238553839188171,1.7439090228315308
MGB1986W,2019-06-06-13-20-32,3,42,0.5901039969872879,left,stripes-2,stripes-8,left,left,0.2622379318665935,3.4956415273657058
MGB1986W,2019-06-06-13-20-32,3,43,0.677838324537539,left,stripes-8,heavy poles sphere,left,left,0.40181105966712494,0.35178331969154897
MGB1986W,2019-06-06-13-20-32,3,44,0.5813691086698807,left,stripes-2,heavy poles sphere,left,left,2.4524617051499717,0.21570754353183474
MGB1986W,2019-06-06-13-20-32,3,45,0.5959001814995807,right,stripes-8,stripes-4,left,left,0.15107961994976904,1.5116862422160011
MGB1986W,2019-06-06-13-20-32,3,46,0.6911852549166716,right,stripes-2,stripes-2,left,left,2.190069524091541,0.24779417435638607
MGB1986W,2019-06-06-13-20-32,3,47,0.6636534448853543,left,stripes-8,stripes-8,left,left,0.5754545997358491,0.2558210410825268
MGB1986W,2019-06-06-13-20-32,4,0,0.6812355642463059,right,stripes-2,stripes-4,left,left,0.27522969446204115,0.22388990339504744
MGB1986W,2019-06-06-13-20-32,4,1,0.6131007188434608,right,stripes-8,stripes-8,left,left,0.462196819481278,0.2636921036853437
MGB1986W,2019-06-06-13-20-32,4,2,0.6005416348148561,right,stripes-4,stripes-4,left,left,0.4881483130861852,0.23981799839270934
MGB1986W,2019-06-06-13-20-32,4,3,0.6000051470628887,right,stripes-8,stripes-4,left,left,0.29025375236028594,0.24782589495634966
MGB1986W,2019-06-06-13-20-32,4,4,0.6288334926318253,right,stripes-4,stripes-2,left,left,0.3065236212732998,0.23978845469673615
MGB1986W,2019-06-06-13-20-32,4,5,0.6249333788944481,left,stripes-8,stripes-2,left,left,1.5220336885211054,0.1996584748735586
MGB1986W,2019-06-06-13-20-32,4,6,0.5761764834582827,right,stripes-8,heavy poles sphere,left,left,0.38199594722686925,0.22379256469139364
MGB1986W,2019-06-06-13-20-32,4,7,0.5775258075811516,left,stripes-2,stripes-2,left,right,0.3175627010525659,0.4399345560484562
MGB1986W,2019-06-06-13-20-32,4,8,0.5482792689364866,right,heavy poles sphere,stripes-8,left,left,0.24912706152804276,0.1996786889815212
MGB1986W,2019-06-06-13-20-32,4,9,0.6924255138317597,right,stripes-2,stripes-8,right,left,1.2026259059030053,0.4876451372942938
MGB1986W,2019-06-06-13-20-32,4,10,0.5631259899442462,right,stripes-4,stripes-8,left,left,0.3026698793621563,0.2716934695370128
MGB1986W,2019-06-06-13-20-32,4,11,0.5407160741731432,left,stripes-2,heavy poles sphere,left,left,0.6175888860968826,0.26367344450886776
MGB1986W,2019-06-06-13-20-32,4,12,0.6749919536211674,right,heavy poles sphere,heavy poles sphere,right,right,0.5801296563975029,0.25580704670028354
MGB1986W,2019-06-06-13-20-32,4,13,0.6354480024697395,right,stripes-4,heavy poles sphere,left,left,0.3614609015617134,0.2878184188462001
MGB1986W,2019-06-06-13-20-32,4,14,0.5456601903894895,right,heavy poles sphere,stripes-2,left,right,0.5063235949019145,0.41584742515806283
MGB1986W,2019-06-06-13-20-32,4,15,0.6450661634957765,right,heavy poles sphere,stripes-4,left,left,0.355583571963507,0.27979901579055877
MGB1986W,2019-06-06-13-20-32,4,16,0.607663988422118,left,stripes-4,stripes-4,left,right,0.43308104053517127,0.43186041940862196
MGB1986W,2019-06-06-13-20-32,4,17,0.5256328052019329,right,stripes-2,heavy poles sphere,right,right,0.2818331770108671,0.2798251386375341
MGB1986W,2019-06-06-13-20-32,4,18,0.5189517620157426,left,heavy poles sphere,heavy poles sphere,right,right,0.39943543551771654,0.2799915162945581
MGB1986W,2019-06-06-13-20-32,4,19,0.5711302352182223,right,stripes-2,stripes-4,left,left,0.29236783705300695,0.28781717490119263
MGB1986W,2019-06-06-13-20-32,4,20,0.6984093728409017,left,stripes-8,heavy poles sphere,left,left,0.27384860441793535,0.24780257098564107
MGB1986W,2019-06-06-13-20-32,4,21,0.5689398897407518,left,stripes-4,stripes-2,left,left,0.3894067501437348,0.27980958932403155
MGB1986W,2019-06-06-13-20-32,4,22,0.6720667722558921,left,stripes-2,stripes-2,left,right,0.6308723538179493,0.40777142260049004
MGB1986W,2019-06-06-13-20-32,4,23,0.5277383853339533,right,heavy poles sphere,stripes-8,right,right,0.352100214704933,0.2717861434466613
MGB1986W,2019-06-06-13-20-32,4,24,0.6382319691272816,left,stripes-4,heavy poles sphere,left,left,0.26230448292949404,0.2718785063702853
MGB1986W,2019-06-06-13-20-32,4,25,0.5313479870420276,right,stripes-2,stripes-8,left,right,1.3151904977521554,0.31982232732184457
MGB1986W,2019-06-06-13-20-32,4,26,0.6359413020476509,left,heavy poles sphere,stripes-4,right,right,0.2641178438948373,0.24766418209355834
MGB1986W,2019-06-06-13-20-32,4,27,0.5995248201108893,right,heavy poles sphere,stripes-2,right,right,0.32357935250161063,0.2718984094917687
MGB1986W,2019-06-06-13-20-32,4,28,0.5254645855489442,left,stripes-8,stripes-8,right,right,0.5177744205082035,0.27185580437208046
MGB1986W,2019-06-06-13-20-32,4,29,0.6794914646933565,right,stripes-8,stripes-2,right,right,0.1699138816809409,0.2716676576762893
MGB1986W,2019-06-06-13-20-32,4,30,0.6369005437590802,left,stripes-8,stripes-4,right,right,0.27007540795170826,0.2799277641081517
MGB1986W,2019-06-06-13-20-32,4,31,0.6605832296331845,right,stripes-4,stripes-8,right,right,0.17293791221209176,0.23997971125550066
MGB1986W,2019-06-06-13-20-32,4,32,0.6497121932535778,right,stripes-8,heavy poles sphere,right,right,0.15470727483989322,2.439602733693846
MGB1986W,2019-06-06-13-20-32,4,33,0.6860717776325429,left,stripes-8,stripes-8,right,right,0.2931058074821067,0.28777488076798363
MGB1986W,2019-06-06-13-20-32,4,34,0.5199058787537407,right,stripes-8,stripes-4,right,right,0.05666978482236118,0.28779664980720554
MGB1986W,2019-06-06-13-20-32,4,35,0.510092852829313,right,stripes-2,heavy poles sphere,right,right,0.10244167763426049,3.2476467668623172
MGB1986W,2019-06-06-13-20-32,4,36,0.672142559445175,right,stripes-4,stripes-4,right,right,0.27436235374307216,0.279810833269039
MGB1986W,2019-06-06-13-20-32,4,37,0.5621565073849322,left,heavy poles sphere,stripes-4,right,right,0.28576933028489293,2.167787357537236
MGB1986W,2019-06-06-13-20-32,4,38,0.6530292435376542,left,stripes-2,stripes-2,right,left,0.5112545932672674,0.5438179660502556
MGB1986W,2019-06-06-13-20-32,4,39,0.556034448116429,right,heavy poles sphere,heavy poles sphere,right,right,0.9364567965428705,0.2799818757198409
MGB1986W,2019-06-06-13-20-32,4,40,0.6637499361379708,right,stripes-2,stripes-4,right,right,0.5321096438087807,0.2798319803357572
MGB1986W,2019-06-06-13-20-32,4,41,0.5281563460696341,left,stripes-4,stripes-2,right,left,0.4055851890921076,0.5039457938482883
MGB1986W,2019-06-06-13-20-32,4,42,0.5831059464973778,right,stripes-2,stripes-8,right,right,0.25617680938034937,0.2638320475086857
MGB1986W,2019-06-06-13-20-32,4,43,0.689796853614547,left,stripes-8,stripes-2,right,left,0.3351430661257382,0.4396453388133068
MGB1986W,2019-06-06-13-20-32,4,44,0.5011974081064761,left,stripes-4,heavy poles sphere,right,right,0.2525230316434772,0.2718020037466431
MGB1986W,2019-06-06-13-20-32,4,45,0.6867714961905781,left,stripes-4,stripes-8,right,right,0.18752565636759755,0.24769185987202036
MGB1986W,2019-06-06-13-20-32,4,46,0.5452406680144256,right,heavy poles sphere,stripes-2,right,right,0.1884987324199301,0.28782588251692687
MGB1986W,2019-06-06-13-20-32,4,47,0.5276150944655155,right,heavy poles sphere,stripes-8,right,right,0.19620372835220223,0.26382116298918845
MGB1986W,2019-06-06-13-20-32,5,0,0.5663824684066449,right,stripes-2,heavy poles sphere,right,right,1.1200596720461817,0.199837602967591
MGB1986W,2019-06-06-13-20-32,5,1,0.5891898048090226,right,stripes-8,heavy poles sphere,right,right,0.23581653800124514,0.23191055039592356
MGB1986W,2019-06-06-13-20-32,5,2,0.679356379341837,left,stripes-4,heavy poles sphere,right,right,0.3266917031351113,0.2238342368520989
MGB1986W,2019-06-06-13-20-32,5,3,0.5615938562369597,right,stripes-8,stripes-2,right,right,0.38567118301671144,0.279810833269039
MGB1986W,2019-06-06-13-20-32,5,4,0.6358407693106408,right,heavy poles sphere,heavy poles sphere,right,right,0.31118375059395476,0.2557790579353423
MGB1986W,2019-06-06-13-20-32,5,5,0.5846547284488363,right,stripes-8,stripes-4,right,right,0.32009910510578266,0.24783180369558977
MGB1986W,2019-06-06-13-20-32,5,6,0.5606464598466704,right,stripes-2,stripes-4,right,right,0.25835589020425687,0.23993710613581243
MGB1986W,2019-06-06-13-20-32,5,7,0.6751277206195321,right,heavy poles sphere,stripes-4,right,right,0.4678807156167295,0.25586800000996845
MGB1986W,2019-06-06-13-20-32,5,8,0.5900047514003519,right,stripes-4,stripes-4,right,right,0.3341332936929575,0.2558306816570166
MGB1986W,2019-06-06-13-20-32,5,9,0.663043268555196,left,stripes-4,stripes-2,right,right,0.32226201464368387,0.24769994551525087
MGB1986W,2019-06-06-13-20-32,5,10,0.5836498403983695,left,stripes-2,stripes-2,right,right,0.3543875187526737,0.2558449870257391
MGB1986W,2019-06-06-13-20-32,5,11,0.66715838004115,right,stripes-2,stripes-8,right,right,0.2544971725128562,0.24782776087386083
MGB1986W,2019-06-06-13-20-32,5,12,0.5350790611658292,right,heavy poles sphere,stripes-2,right,right,0.2928623052293915,0.24790581842876236
MGB1986W,2019-06-06-13-20-32,5,13,0.6142207336275862,right,stripes-8,stripes-8,right,right,0.7571887587168931,0.2637026772185891
MGB1986W,2019-06-06-13-20-32,5,14,0.6304981363989411,left,heavy poles sphere,stripes-8,right,right,0.21833879839869041,2.367749666000691
MGB1986W,2019-06-06-13-20-32,5,15,0.6372815695883166,left,stripes-4,stripes-8,right,right,0.2222009369393163,0.24770927510348884
MGB1986W,2019-06-06-13-20-32,5,16,0.6908227050885669,right,stripes-4,stripes-2,right,right,0.23903648988539317,0.2397421177417982
MGB1986W,2019-06-06-13-20-32,5,17,0.5584805083621435,left,stripes-8,stripes-8,right,right,0.4366060699544505,0.2719329289682264
MGB1986W,2019-06-06-13-20-32,5,18,0.6351022495918884,right,stripes-2,stripes-4,right,right,0.29329955193111346,1.5196708148089328
MGB1986W,2019-06-06-13-20-32,5,19,0.512383613299185,right,stripes-8,stripes-4,right,right,0.5499963303618642,0.36777143503991283
MGB1986W,2019-06-06-13-20-32,5,20,0.6048983513726042,right,stripes-2,heavy poles sphere,right,right,0.2565804695643692,0.22382117542861124
MGB1986W,2019-06-06-13-20-32,5,21,0.5655735012403699,left,heavy poles sphere,heavy poles sphere,right,right,0.28831133209109794,0.2717519349566828
MGB1986W,2019-06-06-13-20-32,5,22,0.5609728120599877,left,stripes-8,stripes-2,right,right,0.2899950117800927,0.24762904064482427
MGB1986W,2019-06-06-13-20-32,5,23,0.5308236630811723,right,stripes-4,stripes-8,right,right,0.27752508415301236,0.2557638196080916
MGB1986W,2019-06-06-13-20-32,5,24,0.6099202029923015,left,heavy poles sphere,stripes-4,right,right,0.17641660467666043,0.23984007841841049
MGB1986W,2019-06-06-13-20-32,5,25,0.5894987864439505,left,heavy poles sphere,stripes-2,right,right,0.2568364112682957,0.25583348053351074
MGB1986W,2019-06-06-13-20-32,5,26,0.5597759273386229,left,stripes-8,heavy poles sphere,right,right,0.35777944604637923,0.2637969060597243
MGB1986W,2019-06-06-13-20-32,5,27,0.5645917975785387,right,stripes-2,stripes-8,right,right,0.14135974394616824,0.2637885094302419
MGB1986W,2019-06-06-13-20-32,5,28,0.6168640607672269,right,stripes-4,heavy poles sphere,right,right,0.22834260487070424,0.23184151144300813
MGB1986W,2019-06-06-13-20-32,5,29,0.5477343654646197,left,stripes-4,stripes-4,right,right,0.6266926982912082,0.27994238046289865
MGB1986W,2019-06-06-13-20-32,5,30,0.600094135543715,left,stripes-2,stripes-2,right,left,0.36462332098517436,0.38382516849242165
MGB1986W,2019-06-06-13-20-32,5,31,0.6027003415479112,left,heavy poles sphere,stripes-8,right,right,0.26205507193731137,0.21582447437094743
MGB1986W,2019-06-06-13-20-32,5,32,0.5153134912768914,right,stripes-4,stripes-4,right,right,0.2618470221198095,0.24771891567775128
MGB1986W,2019-06-06-13-20-32,5,33,0.6398792493029709,right,stripes-2,heavy poles sphere,right,right,0.0719174418518378,2.3118644995486193
MGB1986W,2019-06-06-13-20-32,5,34,0.5219566635069357,right,stripes-2,stripes-4,right,right,0.28145968249532416,0.2718464747838425
MGB1986W,2019-06-06-13-20-32,5,35,0.68224462007063,left,stripes-2,stripes-8,right,right,0.15107246726552148,0.2637266231618014
MGB1986W,2019-06-06-13-20-32,5,36,0.5335263632939586,left,stripes-8,stripes-2,right,right,0.36802146800437185,0.2718072905133795
MGB1986W,2019-06-06-13-20-32,5,37,0.514140199205674,right,heavy poles sphere,stripes-2,right,right,0.3302568497838365,0.247840511311324
MGB1986W,2019-06-06-13-20-32,5,38,0.6787700319819869,left,stripes-8,heavy poles sphere,right,right,0.22380624808738503,0.2878137540521948
MGB1986W,2019-06-06-13-20-32,5,39,0.5121722415422985,left,heavy poles sphere,stripes-8,right,right,0.2314922738569294,0.2558036258510583
MGB1986W,2019-06-06-13-20-32,5,40,0.5365251000426121,right,heavy poles sphere,stripes-4,right,right,0.1511477259439289,1.7357944579757714
MGB1986W,2019-06-06-13-20-32,5,41,0.6381932070391845,left,stripes-2,stripes-2,right,right,0.4002872269229556,0.26396203977128607
MGB1986W,2019-06-06-13-20-32,5,42,0.5559082023629816,right,stripes-4,stripes-8,right,right,0.29445331100851035,0.25580860163154284
MGB1986W,2019-06-06-13-20-32,5,43,0.536885619973446,left,stripes-4,heavy poles sphere,right,right,0.24338749884941535,3.3356851152018407
MGB1986W,2019-06-06-13-20-32,5,44,0.5822327313906798,left,stripes-8,stripes-8,right,right,0.2972615170656354,0.21569261619060853
MGB1986W,2019-06-06-13-20-32,5,45,0.5860544572148093,right,heavy poles sphere,heavy poles sphere,right,right,0.20682328764723934,2.711832343567721
MGB1986W,2019-06-06-13-20-32,5,46,0.5267293903630993,left,stripes-8,stripes-4,right,right,0.4104763812144938,0.27984877359449456
MGB1986W,2019-06-06-13-20-32,5,47,0.5005595062824645,left,stripes-4,stripes-2,right,right,0.16937494246758433,0.25581451037078295
MGB1986W,2019-06-06-13-20-32,6,0,0.5386643756436444,left,stripes-4,stripes-2,right,right,0.2621412151354434,0.25578683259232093
MGB1986W,2019-06-06-13-20-32,6,1,0.5672646404264461,right,stripes-8,stripes-2,right,right,0.03368292337040657,2.3436690658220414
MGB1986W,2019-06-06-13-20-32,6,2,0.5609966961528952,left,heavy poles sphere,heavy poles sphere,right,right,0.25243937633558744,0.2558058027550487
MGB1986W,2019-06-06-13-20-32,6,3,0.5016972275570319,left,stripes-2,stripes-4,right,right,0.011495607629740334,0.2637928632382227
MGB1986W,2019-06-06-13-20-32,6,4,0.5932039879497741,right,stripes-2,stripes-8,right,right,0.19195036907854046,0.23981426655745963
MGB1986W,2019-06-06-13-20-32,6,5,0.587123058359487,right,heavy poles sphere,stripes-4,right,right,0.13567211597546702,0.23989543397510715
MGB1986W,2019-06-06-13-20-32,6,6,0.6349085630869842,right,heavy poles sphere,stripes-2,right,right,0.22404881738134463,0.2318122787332868
MGB1986W,2019-06-06-13-20-32,6,7,0.6001040398689906,left,stripes-4,heavy poles sphere,right,right,1.2143015745855337,0.24782060818961327
MGB1986W,2019-06-06-13-20-32,6,8,0.642931386694374,left,stripes-4,stripes-8,right,right,0.24861922094214606,0.24767786548954973
MGB1986W,2019-06-06-13-20-32,6,9,0.6349887328173031,left,stripes-4,stripes-4,right,left,0.338750506907445,0.46390817694873476
MGB1986W,2019-06-06-13-20-32,6,10,0.5743058342644137,left,stripes-2,heavy poles sphere,left,right,1.7553645132318252,0.32794466683412793
MGB1986W,2019-06-06-13-20-32,6,11,0.5145221665753025,left,stripes-2,stripes-2,right,left,0.3059274605857354,0.3997010177959055
MGB1986W,2019-06-06-13-20-32,6,12,0.5470132132564823,right,stripes-8,heavy poles sphere,left,left,0.2874234662779145,0.2557765700453274
MGB1986W,2019-06-06-13-20-32,6,13,0.5757750457955071,left,stripes-8,stripes-8,right,right,0.2649173896058983,0.2479913396541633
MGB1986W,2019-06-06-13-20-32,6,14,0.5197130712509939,right,stripes-8,stripes-4,right,right,0.3265797480762558,0.25581979713751934
MGB1986W,2019-06-06-13-20-32,6,15,0.6714352118054556,left,heavy poles sphere,stripes-8,right,right,0.30078063774567454,0.2799290080531591
MGB1986W,2019-06-06-13-20-32,6,16,0.6922314587973541,left,stripes-2,stripes-8,right,right,0.32833122277293114,0.271700000248984
MGB1986W,2019-06-06-13-20-32,6,17,0.5427407747766515,left,heavy poles sphere,heavy poles sphere,right,right,0.30053558056147267,0.24796335088944943
MGB1986W,2019-06-06-13-20-32,6,18,0.5995864773674269,left,stripes-8,stripes-2,right,left,0.41423869316099626,0.35970258516681497
MGB1986W,2019-06-06-13-20-32,6,19,0.6639069805109168,right,stripes-4,stripes-2,right,right,0.6594432848112319,0.26377917984200394
MGB1986W,2019-06-06-13-20-32,6,20,0.6205054537952722,right,stripes-2,stripes-4,left,left,0.2601387745150987,0.2878243275854402
MGB1986W,2019-06-06-13-20-32,6,21,0.6874497563084052,right,stripes-8,heavy poles sphere,right,right,0.25881988172568526,0.23183684664900284
MGB1986W,2019-06-06-13-20-32,6,22,0.6556597952850601,left,stripes-4,heavy poles sphere,right,right,0.23785878486455658,0.2397872107517287
MGB1986W,2019-06-06-13-20-32,6,23,0.5462277936975526,left,stripes-8,stripes-4,right,right,0.3314902213476216,0.2557974061257937
MGB1986W,2019-06-06-13-20-32,6,24,0.6548232152547983,left,stripes-2,stripes-2,right,left,0.2883508273478128,0.35180913155227245
MGB1986W,2019-06-06-13-20-32,6,25,0.617476548116013,left,heavy poles sphere,stripes-2,right,left,0.3745033549198524,0.3279185439871526
MGB1986W,2019-06-06-13-20-32,6,26,0.6407205004852298,right,stripes-2,heavy poles sphere,left,left,0.2012270896411792,1.375852102391491
MGB1986W,2019-06-06-13-20-32,6,27,0.6401693450561649,right,stripes-8,stripes-8,left,left,0.9992536329416453,0.2799050621101742
MGB1986W,2019-06-06-13-20-32,6,28,0.5348572914523456,right,heavy poles sphere,stripes-4,left,left,0.27834639890329527,0.2718296815251051
MGB1986W,2019-06-06-13-20-32,6,29,0.6474994072557768,left,stripes-4,stripes-8,left,left,0.29334962072107373,0.2877963388209537
MGB1986W,2019-06-06-13-20-32,6,30,0.6825761932134998,right,stripes-4,stripes-4,left,left,0.7141034763290008,0.2558434320942524
MGB1986W,2019-06-06-13-20-32,6,31,0.6078315394717413,right,heavy poles sphere,stripes-8,left,left,0.27536528447785713,0.24768564014675576
MGB1986W,2019-06-06-13-20-32,6,32,0.6454633520306956,right,stripes-2,stripes-2,left,left,0.8194746446670251,0.23175630120385904
MGB1986W,2019-06-06-13-20-32,6,33,0.6917949824025893,right,stripes-8,stripes-4,left,left,0.40458878906929385,0.2637577217890339
MGB1986W,2019-06-06-13-20-32,6,34,0.5341339693949845,left,heavy poles sphere,stripes-2,left,left,0.49278418547714864,0.26380841255172527
MGB1986W,2019-06-06-13-20-32,6,35,0.519541915082294,left,stripes-4,stripes-4,left,left,0.27229336206028165,0.25579958302955674
MGB1986W,2019-06-06-13-20-32,6,36,0.5382626574216802,left,stripes-2,stripes-8,left,left,0.3572650747487387,0.24776276474267434
MGB1986W,2019-06-06-13-20-32,6,37,0.6446830570031024,left,stripes-8,heavy poles sphere,left,left,0.45136827740975605,0.2558397002590027
MGB1986W,2019-06-06-13-20-32,6,38,0.6488509450774292,right,stripes-4,stripes-8,left,left,0.2842747302504449,0.24773508696421231
MGB1986W,2019-06-06-13-20-32,6,39,0.5037267333669889,left,heavy poles sphere,heavy poles sphere,left,left,0.27657750897515143,0.2477826678641577
MGB1986W,2019-06-06-13-20-32,6,40,0.6488363686363434,left,heavy poles sphere,stripes-4,left,left,0.2700869144439366,0.26394991130678136
MGB1986W,2019-06-06-13-20-32,6,41,0.6123842276532642,left,stripes-4,heavy poles sphere,left,left,0.28846340437917206,0.27971038470241183
MGB1986W,2019-06-06-13-20-32,6,42,0.6557449791740542,left,heavy poles sphere,stripes-8,left,left,1.6552278658627984,0.24766356012105462
MGB1986W,2019-06-06-13-20-32,6,43,0.6896661689258551,left,stripes-2,heavy poles sphere,left,left,0.11842139635336935,0.27168942671528384
MGB1986W,2019-06-06-13-20-32,6,44,0.6721555815328379,right,stripes-8,stripes-8,left,left,0.3392583474935691,0.27981425411803684
MGB1986W,2019-06-06-13-20-32,6,45,0.6147584644712637,right,stripes-8,stripes-2,left,left,0.3374400107477413,0.26378726548523446
MGB1986W,2019-06-06-13-20-32,6,46,0.5975083648736914,right,stripes-4,stripes-2,left,left,0.2323154545251782,0.2718131992526196
MGB1986W,2019-06-06-13-20-32,6,47,0.5375451880760018,left,stripes-2,stripes-4,left,left,0.38128316668598927,0.2719562529387076
MGB1986W,2019-06-06-13-20-32,7,0,0.6762531581861241,left,stripes-8,stripes-4,left,left,1.112574543410119,0.2238012723069005
MGB1986W,2019-06-06-13-20-32,7,1,0.6392364194022612,right,stripes-8,stripes-8,left,left,0.3675204691162435,0.2479381610010023
MGB1986W,2019-06-06-13-20-32,7,2,0.5981298133000791,left,stripes-4,heavy poles sphere,left,left,0.5277234933960244,0.2638174311541661
MGB1986W,2019-06-06-13-20-32,7,3,0.5299069141924931,right,heavy poles sphere,stripes-4,left,left,0.6104809838116125,0.2399576312300269
MGB1986W,2019-06-06-13-20-32,7,4,0.6138555207847469,right,stripes-2,stripes-4,left,left,0.49448248152111773,0.2558505847782726
MGB1986W,2019-06-06-13-20-32,7,5,0.6397212689893786,left,stripes-2,stripes-2,left,right,0.2540406446619272,0.24767444464077926
MGB1986W,2019-06-06-13-20-32,7,6,0.6815069278291841,right,heavy poles sphere,stripes-2,left,left,0.4787465760409759,0.25582290700003796
MGB1986W,2019-06-06-13-20-32,7,7,0.5035901631246855,right,heavy poles sphere,heavy poles sphere,left,left,0.3269784324797911,0.24793194127596507
MGB1986W,2019-06-06-13-20-32,7,8,0.6886162071528943,right,stripes-2,heavy poles sphere,left,left,0.35647299270794974,0.2558456089982428
MGB1986W,2019-06-06-13-20-32,7,9,0.585122395765779,right,stripes-8,stripes-2,left,left,0.2840962241289162,0.2558126444532718
MGB1986W,2019-06-06-13-20-32,7,10,0.5192374417846269,right,stripes-4,stripes-8,left,left,0.4010077821208142,0.2557771920178311
MGB1986W,2019-06-06-13-20-32,7,11,0.6006955752562798,right,heavy poles sphere,stripes-8,left,left,0.43128353986958246,0.2637166716012871
MGB1986W,2019-06-06-13-20-32,7,12,0.5368529636870242,left,stripes-8,heavy poles sphere,left,left,0.46947669717656026,0.2637384406402816
MGB1986W,2019-06-06-13-20-32,7,13,0.6162678945298741,right,stripes-4,stripes-4,left,left,0.31810941492267375,0.26382955961844345
MGB1986W,2019-06-06-13-20-32,7,14,0.6350458268873168,right,stripes-4,stripes-2,left,left,0.028410151089701685,0.2878684876363877
MGB1986W,2019-06-06-13-20-32,7,15,0.5821701407303657,right,stripes-2,stripes-8,left,left,0.12806974551403982,1.8317648222277967
MGB1986W,2019-06-06-13-20-32,7,16,0.5211262821762843,left,stripes-2,stripes-2,left,right,0.3705395238675919,0.28781624194243705
MGB1986W,2019-06-06-13-20-32,7,17,0.6841669259993715,right,heavy poles sphere,stripes-2,left,left,0.34139762207450985,0.27966653563771615
MGB1986W,2019-06-06-13-20-32,7,18,0.5649722800762104,right,stripes-2,heavy poles sphere,left,left,0.573480769852722,0.27191706866869936
MGB1986W,2019-06-06-13-20-32,7,19,0.6801245452753439,right,heavy poles sphere,stripes-4,left,left,0.6888128285572748,0.27178863133713094
MGB1986W,2019-06-06-13-20-32,7,20,0.5271629433526137,right,stripes-4,stripes-4,left,left,0.7320554699995228,0.2639760341535293
MGB1986W,2019-06-06-13-20-32,7,21,0.6106180782963443,right,stripes-4,heavy poles sphere,left,left,0.43599031713119984,0.27181972996413606
MGB1986W,2019-06-06-13-20-32,7,22,0.6164065580133742,left,stripes-8,stripes-8,left,left,0.5820388011352406,0.2718281265938458
MGB1986W,2019-06-06-13-20-32,7,23,0.6424971608930348,right,stripes-8,heavy poles sphere,left,left,0.5381816508147494,0.2877972717792545
MGB1986W,2019-06-06-13-20-32,7,24,0.6820243691597324,right,heavy poles sphere,heavy poles sphere,left,left,0.2873544273252264,0.26396452766130096
MGB1986W,2019-06-06-13-20-32,7,25,0.5065783000541255,right,stripes-4,stripes-8,left,left,0.2598218795014873,0.27170528701526564
MGB1986W,2019-06-06-13-20-32,7,26,0.5785995566688288,left,stripes-4,stripes-2,left,left,0.526531483006238,0.24783522454436024
MGB1986W,2019-06-06-13-20-32,7,27,0.5680290281158634,left,stripes-8,stripes-2,left,left,0.4233512129708288,0.23183093790976272
MGB1986W,2019-06-06-13-20-32,7,28,0.6325238841459029,right,stripes-2,stripes-8,left,left,0.06616637268098202,0.27190618414851997
MGB1986W,2019-06-06-13-20-32,7,29,0.5788076176994258,left,heavy poles sphere,stripes-8,left,left,0.26202055246085365,1.68764631904196
MGB1986W,2019-06-06-13-20-32,7,30,0.6110834877412342,left,stripes-8,stripes-4,left,left,0.532941843079243,0.2719864186074119
MGB1986W,2019-06-06-13-20-32,7,31,0.66157894235423,left,stripes-2,stripes-4,left,left,0.536956675879992,0.2718051136093891
MGB1986W,2019-06-06-13-20-32,7,32,0.6920731377271148,right,stripes-2,stripes-2,left,left,0.5716751835443574,0.28782774843421066
MGB1986W,2019-06-06-13-20-32,7,33,0.672267824273157,right,stripes-2,stripes-8,left,left,0.012846221019117365,0.2878196627912075
MGB1986W,2019-06-06-13-20-32,7,34,0.5467655407344688,left,stripes-4,stripes-8,left,left,0.058074198837402946,0.2797113176611674
MGB1986W,2019-06-06-13-20-32,7,35,0.500997460076909,left,stripes-4,heavy poles sphere,left,left,0.24061101339248125,0.2636911707263607
MGB1986W,2019-06-06-13-20-32,7,36,0.5430572629494366,right,heavy poles sphere,stripes-2,left,left,0.3988364759529759,0.2877891861362514
MGB1986W,2019-06-06-13-20-32,7,37,0.6575565641983844,right,stripes-8,heavy poles sphere,left,left,0.27373011864756336,0.2797069638531866
MGB1986W,2019-06-06-13-20-32,7,38,0.6296194828949224,right,stripes-2,stripes-4,left,left,0.401119737179215,0.31180354623893436
MGB1986W,2019-06-06-13-20-32,7,39,0.600844918724314,right,heavy poles sphere,heavy poles sphere,left,left,0.2852167076753176,0.295817918780358
MGB1986W,2019-06-06-13-20-32,7,40,0.5188484091072576,right,heavy poles sphere,stripes-8,left,left,0.0648624072327948,0.29582507146460557
MGB1986W,2019-06-06-13-20-32,7,41,0.6967839358497491,left,stripes-8,stripes-2,left,left,0.309333693247936,0.271686005866286
MGB1986W,2019-06-06-13-20-32,7,42,0.5507746342839139,left,stripes-2,heavy poles sphere,left,left,0.5594540449360466,0.279780045627831
MGB1986W,2019-06-06-13-20-32,7,43,0.6368180521425214,right,heavy poles sphere,stripes-4,left,left,0.4041117361243778,0.2959354715922018
MGB1986W,2019-06-06-13-20-32,7,44,0.6867809559941744,left,stripes-4,stripes-2,left,left,0.6914683403533672,0.27982233976126736
MGB1986W,2019-06-06-13-20-32,7,45,0.6430905915760132,right,stripes-4,stripes-4,left,left,0.3379727302358333,0.31181971752494064
MGB1986W,2019-06-06-13-20-32,7,46,0.6296958067350492,right,stripes-8,stripes-8,left,left,0.30211694576655646,0.287859469034629
MGB1986W,2019-06-06-13-20-32,7,47,0.6038503543882933,left,stripes-8,stripes-4,left,left,0.4690002662041479,0.2879285079870897
MGB1986W,2019-06-06-13-20-32,8,0,0.6654466257671641,right,stripes-8,stripes-4,left,left,0.3907374604114011,0.2797358855773382
MGB1986W,2019-06-06-13-20-32,8,1,0.5433370245219098,right,heavy poles sphere,stripes-4,left,left,0.34215580661111744,0.3038307911242555
MGB1986W,2019-06-06-13-20-32,8,2,0.6721270872123679,right,stripes-4,stripes-8,left,left,0.24756653240365267,0.28782588251715424
MGB1986W,2019-06-06-13-20-32,8,3,0.6939238489565893,right,stripes-4,stripes-2,left,left,0.30977529375786617,0.28782463857169205
MGB1986W,2019-06-06-13-20-32,8,4,0.5620628109918326,left,stripes-4,stripes-4,left,left,0.3027675290522893,0.2797464591103562
MGB1986W,2019-06-06-13-20-32,8,5,0.6440624100511919,left,heavy poles sphere,stripes-8,left,left,0.3342241016848675,0.27985561529249026
MGB1986W,2019-06-06-13-20-32,8,6,0.6647468505003015,left,stripes-2,stripes-8,left,left,0.1783590249460758,0.3038192846320271
MGB1986W,2019-06-06-13-20-32,8,7,0.6808712874988628,right,stripes-2,stripes-2,left,left,0.3065565858187256,0.27192142247577067
MGB1986W,2019-06-06-13-20-32,8,8,0.6102595863324425,left,stripes-4,heavy poles sphere,left,left,0.05075047207719763,0.2558173092470497
MGB1986W,2019-06-06-13-20-32,8,9,0.5616969435019223,left,stripes-2,stripes-4,left,left,0.2554332411982614,0.24765982828603228
MGB1986W,2019-06-06-13-20-32,8,10,0.5770246926109586,left,heavy poles sphere,stripes-2,left,left,0.32419852617385914,0.2798357121710069
MGB1986W,2019-06-06-13-20-32,8,11,0.6719678994406842,left,stripes-8,stripes-2,left,left,0.3195355979769374,0.8878163663366649
MGB1986W,2019-06-06-13-20-32,8,12,0.5391714119863489,right,heavy poles sphere,heavy poles sphere,left,left,0.37086637044194504,0.23998499802246442
MGB1986W,2019-06-06-13-20-32,8,13,0.6972305820647209,left,stripes-2,heavy poles sphere,left,left,0.24705527096830338,0.2797131835786786
MGB1986W,2019-06-06-13-20-32,8,14,0.5752844254276149,left,stripes-8,heavy poles sphere,left,left,0.3946033307875041,0.25583285856055227
MGB1986W,2019-06-06-13-20-32,8,15,0.6102459500156531,left,stripes-8,stripes-8,left,left,0.27880976845199257,0.24773166611521447
MGB1986W,2019-06-06-13-20-32,8,16,0.6979020335156632,right,stripes-8,stripes-8,left,left,0.220960412691511,0.2557902534413188
MGB1986W,2019-06-06-13-20-32,8,17,0.5605937941843246,left,stripes-2,stripes-2,left,right,0.9145406608331541,0.31966963306103935
MGB1986W,2019-06-06-13-20-32,8,18,0.5780659823573898,left,heavy poles sphere,stripes-4,left,left,0.2735979494809726,0.2799613506258538
MGB1986W,2019-06-06-13-20-32,8,19,0.6729772842193944,right,stripes-2,stripes-4,left,left,0.2797676061773018,0.2718271936350902
MGB1986W,2019-06-06-13-20-32,8,20,0.5445773447211573,right,stripes-4,stripes-2,left,left,0.29938430937409066,0.27193479488596495
MGB1986W,2019-06-06-13-20-32,8,21,0.5704643769298229,right,heavy poles sphere,stripes-8,left,left,0.3736531184458727,0.2878131320794637
MGB1986W,2019-06-06-13-20-32,8,22,0.6835458773430476,left,stripes-8,stripes-2,left,left,0.4072088484304004,0.2878408098581531
MGB1986W,2019-06-06-13-20-32,8,23,0.6339239985000642,left,stripes-4,stripes-4,left,left,0.4412985418475728,0.28779385093048404
MGB1986W,2019-06-06-13-20-32,8,24,0.5077543850861307,right,stripes-8,stripes-4,left,left,0.2779980942759721,0.2639704364009958
MGB1986W,2019-06-06-13-20-32,8,25,0.6417170714365172,left,stripes-8,heavy poles sphere,left,left,0.24684535523329032,2.7757260285561642
MGB1986W,2019-06-06-13-20-32,8,26,0.5746540071165948,left,heavy poles sphere,stripes-2,left,left,0.25375267137224,0.31185641390538876
MGB1986W,2019-06-06-13-20-32,8,27,0.6616379926838853,left,heavy poles sphere,heavy poles sphere,left,left,0.28601936324957933,0.27979528395553643
MGB1986W,2019-06-06-13-20-32,8,28,0.6886076652534543,left,stripes-2,heavy poles sphere,left,left,0.3003007859247191,0.29571311640575004
MGB1986W,2019-06-06-13-20-32,8,29,0.5289178844290847,left,stripes-2,stripes-8,left,left,0.05458151199036365,0.2957137383787085
MGB1986W,2019-06-06-13-20-32,8,30,0.6858155528215439,right,stripes-4,stripes-8,left,left,0.2674099445948741,0.27994580131235125
MGB1986W,2019-06-06-13-20-32,8,31,0.5071705969142882,right,stripes-4,heavy poles sphere,left,left,0.2572341627133028,0.2796407237769927
MGB1986W,2019-06-06-13-20-32,8,32,0.5034231793968865,right,stripes-8,stripes-4,left,left,0.3981995760632344,0.31985187101781776
MGB1986W,2019-06-06-13-20-32,8,33,0.512462067574379,right,heavy poles sphere,heavy poles sphere,left,left,0.4536275926925555,0.2797853323945674
MGB1986W,2019-06-06-13-20-32,8,34,0.5249085229877485,left,stripes-8,stripes-8,left,left,0.5385371081260928,0.23970293347110783
MGB1986W,2019-06-06-13-20-32,8,35,0.5901575720974563,left,stripes-8,stripes-2,left,left,0.29861990511153635,0.28789927527759573
MGB1986W,2019-06-06-13-20-32,8,36,0.6004365822997143,right,stripes-2,stripes-2,left,left,0.46537758709473565,0.28779727177970926
MGB1986W,2019-06-06-13-20-32,8,37,0.6138643835387927,left,heavy poles sphere,stripes-8,left,left,0.2660876309564628,0.27184647478406987
MGB1986W,2019-06-06-13-20-32,8,38,0.6649476518177816,right,stripes-4,stripes-4,left,left,0.3369495853930857,0.2558030038785546
MGB1986W,2019-06-06-13-20-32,8,39,0.517313640027748,left,stripes-4,stripes-2,left,left,0.20390343751796536,0.2878087782714829
MGB1986W,2019-06-06-13-20-32,8,40,0.5950872637945851,right,stripes-2,stripes-8,right,left,0.8067916914419584,0.4318280768356999
MGB1986W,2019-06-06-13-20-32,8,41,0.6187409671159333,left,heavy poles sphere,stripes-2,right,right,0.30851486638812275,0.263949289334505
MGB1986W,2019-06-06-13-20-32,8,42,0.5968267149325963,left,stripes-8,heavy poles sphere,right,right,0.27012143392039434,0.27978564338081924
MGB1986W,2019-06-06-13-20-32,8,43,0.5569086399240615,left,stripes-4,heavy poles sphere,left,left,0.24171345973491043,0.2957852652211841
MGB1986W,2019-06-06-13-20-32,8,44,0.5788781295286621,right,stripes-2,heavy poles sphere,right,right,0.6286366734916555,0.27180480262359197
MGB1986W,2019-06-06-13-20-32,8,45,0.6335747232830862,right,heavy poles sphere,stripes-4,right,right,0.24673713200991187,0.2637549229129945
MGB1986W,2019-06-06-13-20-32,8,46,0.5575915709327972,right,stripes-2,stripes-4,right,right,0.33903257145857424,0.25579989401558123
MGB1986W,2019-06-06-13-20-32,8,47,0.6787149352175724,right,stripes-4,stripes-8,right,right,0.23899979350517242,1.7199189196585394
MGB1986W,2019-06-06-13-20-32,9,0,0.6870301643910105,right,stripes-2,stripes-8,right,right,0.25678323261536207,0.25581762023330157
MGB1986W,2019-06-06-13-20-32,9,1,0.5279791426430469,left,stripes-2,stripes-4,right,right,0.2457295364811216,0.2317979733647917
MGB1986W,2019-06-06-13-20-32,9,2,0.5868349089644954,right,stripes-8,stripes-8,right,right,0.24196535861665325,0.24793349620722438
MGB1986W,2019-06-06-13-20-32,9,3,0.514664453310446,right,stripes-4,heavy poles sphere,right,right,0.25836210992974884,0.2558564935175127
MGB1986W,2019-06-06-13-20-32,9,4,0.5698192887241197,left,stripes-8,stripes-2,right,right,0.33460630381614465,0.2558278827805225
MGB1986W,2019-06-06-13-20-32,9,5,0.609798764021178,left,stripes-4,stripes-8,right,right,0.23754593267312885,0.2558241509450454
MGB1986W,2019-06-06-13-20-32,9,6,0.6867861090904878,right,stripes-2,stripes-2,right,right,0.6857172711825115,0.2798167420082791
MGB1986W,2019-06-06-13-20-32,9,7,0.6717814123738328,left,stripes-8,stripes-4,right,right,0.3469869783825743,0.25582135206877865
MGB1986W,2019-06-06-13-20-32,9,8,0.6881701831322908,right,stripes-4,stripes-4,right,right,0.28564431380254973,0.25586893296849667
MGB1986W,2019-06-06-13-20-32,9,9,0.5040375582694847,right,heavy poles sphere,stripes-4,right,right,0.2767302032357293,0.2557821677978609
MGB1986W,2019-06-06-13-20-32,9,10,0.6742556260768822,left,heavy poles sphere,stripes-8,right,right,0.26105338514753385,0.2477030553777695
MGB1986W,2019-06-06-13-20-32,9,11,0.6341996167896091,right,stripes-2,heavy poles sphere,right,right,0.2798895127966716,0.2718004488151564
MGB1986W,2019-06-06-13-20-32,9,12,0.5317481850217672,right,heavy poles sphere,heavy poles sphere,right,right,0.25363045376616355,0.2558210410825268
MGB1986W,2019-06-06-13-20-32,9,13,0.589704452005576,right,heavy poles sphere,stripes-2,right,right,0.26584692758024175,0.2637922412654916
MGB1986W,2019-06-06-13-20-32,9,14,0.6298632237506281,left,stripes-4,stripes-2,right,right,0.21020370844917124,0.2558238399592483
MGB1986W,2019-06-06-13-20-32,9,15,0.5881871742280826,right,stripes-8,heavy poles sphere,right,right,0.3197386720139548,0.23994830164156156
MGB1986W,2019-06-06-13-20-32,9,16,0.5789886249441654,left,stripes-8,stripes-8,right,right,0.2246141904279284,1.3198027351863857
MGB1986W,2019-06-06-13-20-32,9,17,0.5050513282768726,left,stripes-8,heavy poles sphere,right,right,0.29416005095208675,0.2557974061260211
MGB1986W,2019-06-06-13-20-32,9,18,0.5591535645773866,left,stripes-2,stripes-4,right,right,0.24920076527541823,0.2878243275854402
MGB1986W,2019-06-06-13-20-32,9,19,0.6960977928365986,left,heavy poles sphere,stripes-8,right,right,0.26396483864800757,0.2718424319623409
MGB1986W,2019-06-06-13-20-32,9,20,0.6227568779115424,left,heavy poles sphere,stripes-2,right,right,0.24953196565684266,0.2558225960137861
MGB1986W,2019-06-06-13-20-32,9,21,0.5081315810655629,right,heavy poles sphere,stripes-4,right,right,0.3379155087613981,0.23981115669494102
MGB1986W,2019-06-06-13-20-32,9,22,0.5159116606962372,left,stripes-4,stripes-8,right,right,0.23685212229474928,0.27179796092559627
MGB1986W,2019-06-06-13-20-32,9,23,0.5504020154607385,right,stripes-4,stripes-2,right,right,0.3532881822729905,0.2716984453177247
MGB1986W,2019-06-06-13-20-32,9,24,0.5941904214234051,left,stripes-8,stripes-4,right,right,0.07864936173200476,0.2719587408287225
MGB1986W,2019-06-06-13-20-32,9,25,0.6466518202188895,right,heavy poles sphere,heavy poles sphere,right,right,0.2792065869380167,0.24769652466602565
MGB1986W,2019-06-06-13-20-32,9,26,0.6191218977052334,right,stripes-4,heavy poles sphere,right,right,0.21732778202112968,0.2718147541841063
MGB1986W,2019-06-06-13-20-32,9,27,0.6872453373633637,right,stripes-2,stripes-8,right,right,0.24150851977992716,1.4238273329565345
MGB1986W,2019-06-06-13-20-32,9,28,0.6619476810858775,right,stripes-8,stripes-2,right,right,0.42678916623344776,0.2717939181038673
MGB1986W,2019-06-06-13-20-32,9,29,0.6533187354236579,left,stripes-2,heavy poles sphere,right,right,0.2449971638052375,0.2717220802742304
MGB1986W,2019-06-06-13-20-32,9,30,0.5136639051962875,left,stripes-4,stripes-4,right,right,0.2585679828434877,0.2719195565582595
MGB1986W,2019-06-06-13-20-32,9,31,0.5105199275854808,right,stripes-2,stripes-2,right,right,0.7275122715186626,0.2878028695326975
MGB1986W,2019-06-06-13-20-32,9,32,0.6588275278734741,left,stripes-2,stripes-2,right,left,0.3867008585707481,0.4078155826514376
MGB1986W,2019-06-06-13-20-32,9,33,0.6581419861494062,left,heavy poles sphere,stripes-2,right,right,0.35209679385616255,0.2558067357135769
MGB1986W,2019-06-06-13-20-32,9,34,0.6639474909878512,left,stripes-2,heavy poles sphere,right,right,0.22085405538564373,0.24781687635413618
MGB1986W,2019-06-06-13-20-32,9,35,0.616154638498083,right,heavy poles sphere,heavy poles sphere,right,right,0.22659579496803417,0.2558549385862534
MGB1986W,2019-06-06-13-20-32,9,36,0.5005964350729437,left,heavy poles sphere,stripes-4,right,right,0.28354733335481797,0.24793349620722438
MGB1986W,2019-06-06-13-20-32,9,37,0.6712255266790343,right,stripes-4,heavy poles sphere,right,right,1.227015937424767,0.2638239618654552
MGB1986W,2019-06-06-13-20-32,9,38,0.5130621719052372,right,stripes-8,stripes-2,right,right,0.21666040547643206,0.28780660136771985
MGB1986W,2019-06-06-13-20-32,9,39,0.5718609335642848,left,stripes-4,stripes-2,right,right,0.3882215814519441,0.2798229617337711
MGB1986W,2019-06-06-13-20-32,9,40,0.5332521463471218,right,stripes-2,stripes-4,right,right,0.2030762140279876,0.2638659450126397
MGB1986W,2019-06-06-13-20-32,9,41,0.5589147329543253,left,stripes-8,stripes-8,right,right,0.3134614140672056,0.28780815629897916
MGB1986W,2019-06-06-13-20-32,9,42,0.6686099201121899,left,stripes-4,stripes-8,right,right,0.269614215306774,0.2718094674173699
MGB1986W,2019-06-06-13-20-32,9,43,0.5187126446160724,right,stripes-8,stripes-4,right,right,0.28998630416435844,0.27170093320728483
MGB1986W,2019-06-06-13-20-32,9,44,0.5758592566427498,right,stripes-8,heavy poles sphere,right,right,0.10885825743207533,0.28782619350295136
MGB1986W,2019-06-06-13-20-32,9,45,0.6723032227481713,right,stripes-4,stripes-4,right,right,0.46443125586210954,0.2799433134218816
MGB1986W,2019-06-06-13-20-32,9,46,0.6195331370676609,right,heavy poles sphere,stripes-8,right,right,0.26531980584513803,0.27178396654289827
MGB1986W,2019-06-06-13-20-32,9,47,0.6379125917094105,left,stripes-2,stripes-8,right,right,0.24147337833073834,0.25574111761034146
MGB1986W,2019-06-06-13-20-32,10,0,0.5731520344850678,left,stripes-2,stripes-2,right,left,0.3579899837541234,0.3356561934783713
MGB1986W,2019-06-06-13-20-32,10,1,0.6172656554300037,right,heavy poles sphere,heavy poles sphere,right,right,0.21074389160776263,0.26383733427519473
MGB1986W,2019-06-06-13-20-32,10,2,0.5857366335440115,right,stripes-2,stripes-8,right,right,0.3271628473403325,0.24768066436627123
MGB1986W,2019-06-06-13-20-32,10,3,0.6888302864892353,left,heavy poles sphere,stripes-8,right,right,0.2846410720817403,0.2716791641682903
MGB1986W,2019-06-06-13-20-32,10,4,0.6002692698029838,left,stripes-4,stripes-2,right,right,0.30141878158065083,0.2799461122986031
MGB1986W,2019-06-06-13-20-32,10,5,0.5385655464433503,right,heavy poles sphere,stripes-4,right,right,0.24835954740274246,0.263958307935809
MGB1986W,2019-06-06-13-20-32,10,6,0.6109332168700479,right,stripes-8,stripes-2,right,right,0.28208756378307953,0.2476952807210182
MGB1986W,2019-06-06-13-20-32,10,7,0.6152856144810205,left,heavy poles sphere,stripes-2,right,right,0.3009345759514872,0.2639231664870749
MGB1986W,2019-06-06-13-20-32,10,8,0.56034962434289,left,stripes-4,stripes-4,right,right,0.3985805342495041,0.25579678415351736
MGB1986W,2019-06-06-13-20-32,10,9,0.6785535368228217,left,stripes-8,heavy poles sphere,right,right,0.20917278895012714,0.27983509019850317
MGB1986W,2019-06-06-13-20-32,10,10,0.6745382056332779,left,stripes-4,stripes-8,right,right,0.24960193756896842,0.2716766762782754
MGB1986W,2019-06-06-13-20-32,10,11,0.6358900581817952,right,stripes-8,stripes-4,right,right,0.07373888846041154,0.2717979609251415
MGB1986W,2019-06-06-13-20-32,10,12,0.5678117760720589,left,stripes-4,heavy poles sphere,right,right,0.21351291339442469,0.2478022599993892
MGB1986W,2019-06-06-13-20-32,10,13,0.67258143577961,right,stripes-8,stripes-8,right,right,0.007764394310470379,0.2558260168630113
MGB1986W,2019-06-06-13-20-32,10,14,0.5593425141568075,left,stripes-2,stripes-4,right,right,0.2782602557053906,0.24777396024865084
MGB1986W,2019-06-06-13-20-32,10,15,0.6502703530903742,right,stripes-2,heavy poles sphere,right,right,0.01588206902897582,0.27193914869394575
MGB1986W,2019-06-06-13-20-32,10,16,0.5588037745443919,right,heavy poles sphere,stripes-8,right,right,0.23120741042976078,0.27170373208400633
MGB1986W,2019-06-06-13-20-32,10,17,0.6966474093809658,left,heavy poles sphere,stripes-4,right,right,0.27908312538738755,1.327799747230074
MGB1986W,2019-06-06-13-20-32,10,18,0.6870300057156757,right,stripes-2,stripes-2,right,right,0.6492497767121677,0.29573333051394
MGB1986W,2019-06-06-13-20-32,10,19,0.5890550016363714,left,stripes-4,stripes-2,right,left,0.6184580927333627,0.3757961248625179
MGB1986W,2019-06-06-13-20-32,10,20,0.60796903363859,right,stripes-2,stripes-4,right,right,0.35296568950616347,0.2718187970058352
MGB1986W,2019-06-06-13-20-32,10,21,0.6206307797807319,left,stripes-2,heavy poles sphere,right,right,0.19180949229621547,0.27195314307573426
MGB1986W,2019-06-06-13-20-32,10,22,0.6321546322133242,left,heavy poles sphere,stripes-2,right,right,0.3809553871533353,0.25583503546477004
MGB1986W,2019-06-06-13-20-32,10,23,0.5502709483206171,left,stripes-4,heavy poles sphere,right,right,0.08576223979753195,0.24779883915016399
MGB1986W,2019-06-06-13-20-32,10,24,0.503337962298556,left,stripes-8,stripes-8,right,right,0.6108414169034404,0.29583191316260127
MGB1986W,2019-06-06-13-20-32,10,25,0.5194522707386838,left,stripes-4,stripes-4,right,right,0.3761612227481237,0.2719596737874781
MGB1986W,2019-06-06-13-20-32,10,26,0.5208597380482493,right,stripes-8,stripes-4,right,right,0.32774998942659295,0.2718169310878693
MGB1986W,2019-06-06-13-20-32,10,27,0.530990611942571,right,stripes-8,stripes-2,right,right,0.4019883218434188,0.271809156431118
MGB1986W,2019-06-06-13-20-32,10,28,0.6294545334384853,left,stripes-4,stripes-8,right,right,0.30879475403480683,0.26382644975592484
MGB1986W,2019-06-06-13-20-32,10,29,0.631469167803945,left,stripes-8,heavy poles sphere,right,right,0.16513899842539104,0.27172083632922295
MGB1986W,2019-06-06-13-20-32,10,30,0.6226079675910807,left,stripes-2,stripes-8,right,right,0.21011445538852058,0.2716965793997588
MGB1986W,2019-06-06-13-20-32,10,31,0.5009946775088314,left,heavy poles sphere,heavy poles sphere,right,right,0.28378461588226855,0.28781188813445624
MGB1986W,2019-06-06-13-20-32,10,32,0.5707352694356352,right,stripes-4,stripes-4,right,right,0.4767584407895811,0.2797218911946402
MGB1986W,2019-06-06-13-20-32,10,33,0.5875783593731762,left,stripes-2,stripes-4,right,right,0.30140820804717805,0.2638000159222429
MGB1986W,2019-06-06-13-20-32,10,34,0.5646546437694853,left,heavy poles sphere,heavy poles sphere,right,right,0.32098914782272914,0.2798139431315576
MGB1986W,2019-06-06-13-20-32,10,35,0.5208463717251716,left,stripes-2,heavy poles sphere,right,right,0.43597601176270473,0.26382893764593973
MGB1986W,2019-06-06-13-20-32,10,36,0.5241299955083712,left,stripes-8,heavy poles sphere,right,right,0.41949031837521034,0.2797887532437926
MGB1986W,2019-06-06-13-20-32,10,37,0.6856354177727113,left,heavy poles sphere,stripes-2,right,left,0.6121942071968078,0.3838229915886586
MGB1986W,2019-06-06-13-20-32,10,38,0.5498844663578357,left,heavy poles sphere,stripes-4,right,right,1.2867601325547184,0.26380032690849475
MGB1986W,2019-06-06-13-20-32,10,39,0.5702930754005988,left,stripes-8,stripes-8,right,right,0.29572959867846293,0.2316788656216886
MGB1986W,2019-06-06-13-20-32,10,40,0.5993726084260914,right,stripes-4,heavy poles sphere,right,right,0.2592107914724693,0.24780350394439665
MGB1986W,2019-06-06-13-20-32,10,41,0.6556351113797674,right,stripes-2,stripes-2,right,right,0.7160530492828912,0.5198303507677338
MGB1986W,2019-06-06-13-20-32,10,42,0.527863508011452,left,stripes-8,stripes-4,right,right,0.4365149509762887,0.3038146198382492
MGB1986W,2019-06-06-13-20-32,10,43,0.5049568024796173,left,stripes-4,stripes-8,right,right,0.2660201469348067,0.26381338833243717
MGB1986W,2019-06-06-13-20-32,10,44,0.5146920211379805,left,stripes-4,stripes-2,right,right,0.3517861185678157,0.2637085859578292
MGB1986W,2019-06-06-13-20-32,10,45,0.6239490084684928,left,heavy poles sphere,stripes-8,right,right,0.5500041050186155,0.27968426185498174
MGB1986W,2019-06-06-13-20-32,10,46,0.6725079123831832,right,stripes-8,stripes-2,right,right,0.27979435099678085,0.2718290595526014
MGB1986W,2019-06-06-13-20-32,10,47,0.6371671814894461,left,stripes-2,stripes-8,right,right,0.2866945144510282,0.263819919044181
