Participant,Session,Block,Trial,OnsetDelay,Bias,Shape1,Shape2,Response1,Response2,RT1,RT2
RHL2000W,2019-05-17-11-41-49,0,0,0.6472647372003296,left,stripes-2,stripes-8,right,left,26.843682649982384,0.4158000770025865
RHL2000W,2019-05-17-11-41-49,0,1,0.6330855958537102,left,stripes-4,stripes-4,right,left,5.536107228847413,0.4316813860955335
RHL2000W,2019-05-17-11-41-49,0,2,0.6156765529975843,right,stripes-4,stripes-2,right,left,0.7632255608655214,0.4158401954546207
RHL2000W,2019-05-17-11-41-49,0,3,0.6710409994114724,left,stripes-4,stripes-8,left,left,0.4555005507736496,0.36795991140343176
RHL2000W,2019-05-17-11-41-49,0,4,0.6962205277105886,left,heavy poles sphere,stripes-2,left,left,0.5143026946534519,0.33567979628514877
RHL2000W,2019-05-17-11-41-49,0,5,0.5528334472361194,right,stripes-8,heavy poles sphere,left,left,24.664434339155832,1.1598487067863061
RHL2000W,2019-05-17-11-41-49,0,6,0.5118844873999928,left,stripes-8,stripes-2,left,left,9.686234208413225,0.8479264980201151
RHL2000W,2019-05-17-11-41-49,0,7,0.6049119667504211,right,stripes-8,stripes-4,left,left,12.871399524425215,0.6157137445816261
RHL2000W,2019-05-17-11-41-49,0,8,0.6616485347104916,left,stripes-8,stripes-8,left,left,9.045449541250036,0.5839222037907348
RHL2000W,2019-05-17-11-41-49,0,9,0.6233796981285052,left,stripes-2,heavy poles sphere,left,left,34.818886336650394,0.8077623295821468
RHL2000W,2019-05-17-11-41-49,0,10,0.6796119533713644,right,heavy poles sphere,stripes-4,right,right,0.3159766603907883,0.40779629031794684
RHL2000W,2019-05-17-11-41-49,0,11,0.6851564746142337,right,stripes-2,stripes-2,right,right,0.3619197519001318,0.3598472762059828
RHL2000W,2019-05-17-11-41-49,0,12,0.6274768678112985,right,stripes-4,heavy poles sphere,right,right,0.48340308968045065,0.4878120764628875
RHL2000W,2019-05-17-11-41-49,0,13,0.698290935373604,left,heavy poles sphere,heavy poles sphere,left,left,0.3212054319760682,0.5998333684760837
RHL2000W,2019-05-17-11-41-49,0,14,0.6734571615240161,right,stripes-2,stripes-4,right,right,0.2957330138783618,0.49585069467138965
RHL2000W,2019-05-17-11-41-49,0,15,0.5315846345365394,left,heavy poles sphere,stripes-8,left,left,0.25865205733043695,0.43168698401905203
RHL2000W,2019-05-17-11-41-49,0,16,0.6498219918877037,left,stripes-8,stripes-4,left,left,0.5793630060597934,0.39169572921946383
RHL2000W,2019-05-17-11-41-49,0,17,0.6334481819057607,left,stripes-2,heavy poles sphere,left,left,0.6504395302968078,0.463993222780573
RHL2000W,2019-05-17-11-41-49,0,18,0.6793054036297825,left,stripes-4,stripes-2,left,left,0.35215697324019857,0.4798798188016917
RHL2000W,2019-05-17-11-41-49,0,19,0.5336917230377625,left,stripes-2,stripes-4,left,left,0.2961665419570636,0.5358043189849013
RHL2000W,2019-05-17-11-41-49,0,20,0.6745163244624033,right,heavy poles sphere,stripes-2,right,right,0.19551618764035084,0.4558174554449579
RHL2000W,2019-05-17-11-41-49,0,21,0.6524088040760607,right,stripes-4,stripes-4,right,right,0.39688562633591573,0.41583739649286144
RHL2000W,2019-05-17-11-41-49,0,22,0.5664332720205141,left,stripes-4,heavy poles sphere,left,left,0.24565212388324653,0.487845353008197
RHL2000W,2019-05-17-11-41-49,0,23,0.6375536067483477,left,heavy poles sphere,heavy poles sphere,left,left,0.3836751487647234,0.39193301897876154
RHL2000W,2019-05-17-11-41-49,0,24,0.6256016558613877,right,stripes-8,stripes-2,right,left,1.2937451290290483,0.39981893827280146
RHL2000W,2019-05-17-11-41-49,0,25,0.5520208020552211,left,stripes-8,heavy poles sphere,left,left,0.5550549560593936,0.38375942861375734
RHL2000W,2019-05-17-11-41-49,0,26,0.6839558411824846,left,heavy poles sphere,stripes-4,left,left,0.3215733399515557,0.3518086579974806
RHL2000W,2019-05-17-11-41-49,0,27,0.55851779801856,right,stripes-2,stripes-2,right,right,0.3750823361251605,0.38383282361110105
RHL2000W,2019-05-17-11-41-49,0,28,0.5471276826166566,right,heavy poles sphere,stripes-8,right,right,0.5944578068952069,0.41586320914029784
RHL2000W,2019-05-17-11-41-49,0,29,0.5059598723821739,right,stripes-8,stripes-8,right,right,0.012447293995137443,0.38383811053927275
RHL2000W,2019-05-17-11-41-49,0,30,0.6273228973540494,right,stripes-2,stripes-8,right,right,0.16213670253682722,0.4399249505049738
RHL2000W,2019-05-17-11-41-49,0,31,0.5801895686990943,left,stripes-4,stripes-8,left,left,0.28169217764798304,2.6477407091574605
RHL2000W,2019-05-17-11-41-49,0,32,0.5393271182350934,left,stripes-2,stripes-2,right,left,0.00326421141744504,0.3678370680813714
RHL2000W,2019-05-17-11-41-49,0,33,0.633297661398634,left,stripes-8,stripes-4,left,left,0.4176756923852736,0.3998099193959206
RHL2000W,2019-05-17-11-41-49,0,34,0.6481870398693974,right,stripes-4,heavy poles sphere,right,right,0.6215290541563263,0.5118657319380873
RHL2000W,2019-05-17-11-41-49,0,35,0.6583109708935367,right,heavy poles sphere,stripes-4,right,right,0.10144650344363981,0.43171404064969465
RHL2000W,2019-05-17-11-41-49,0,36,0.5706982906124325,left,stripes-8,stripes-8,left,left,0.5995292146299107,0.3838580142673891
RHL2000W,2019-05-17-11-41-49,0,37,0.5731836953950324,right,stripes-2,stripes-4,left,left,0.42341200903865683,0.4158268226369728
RHL2000W,2019-05-17-11-41-49,0,38,0.6671554082764107,right,heavy poles sphere,heavy poles sphere,right,right,0.5560971028257882,0.41581655977734044
RHL2000W,2019-05-17-11-41-49,0,39,0.5327453291531477,right,heavy poles sphere,stripes-2,right,left,0.40740319168708083,0.43187544744478146
RHL2000W,2019-05-17-11-41-49,0,40,0.6974255984932405,right,stripes-8,stripes-2,right,right,0.31197880999343397,0.47181663192850465
RHL2000W,2019-05-17-11-41-49,0,41,0.5391081922298986,left,stripes-4,stripes-2,left,left,0.2653499728503448,0.4238231454232846
RHL2000W,2019-05-17-11-41-49,0,42,0.6503649978863499,left,stripes-8,heavy poles sphere,left,left,0.5954166067999722,0.4158224686966605
RHL2000W,2019-05-17-11-41-49,0,43,0.6897293893900216,left,stripes-4,stripes-4,left,left,0.4052016527557498,0.3598295494480226
RHL2000W,2019-05-17-11-41-49,0,44,0.5602045279556576,right,stripes-2,stripes-8,right,left,0.3345987750499262,0.3838465074245505
RHL2000W,2019-05-17-11-41-49,0,45,0.6006096700638434,right,stripes-4,stripes-8,right,right,0.3280426735932451,0.43984098165174146
RHL2000W,2019-05-17-11-41-49,0,46,0.631039871283762,right,stripes-2,heavy poles sphere,right,right,0.43940434361547887,0.4958326569176279
RHL2000W,2019-05-17-11-41-49,0,47,0.6197634664337855,right,heavy poles sphere,stripes-8,right,right,0.24064664724801332,0.4318611416406384
RHL2000W,2019-05-17-11-41-49,1,0,0.5112780908765031,right,stripes-8,heavy poles sphere,right,right,0.32533296760220765,0.45585446393988605
RHL2000W,2019-05-17-11-41-49,1,1,0.5168950524355362,left,stripes-4,stripes-4,left,right,0.06475273660680614,0.45583860315628044
RHL2000W,2019-05-17-11-41-49,1,2,0.5178705694979611,left,stripes-8,stripes-2,left,right,0.43799802082276074,0.3997166206700058
RHL2000W,2019-05-17-11-41-49,1,3,0.610611506270146,right,heavy poles sphere,stripes-8,right,right,0.2838666599491262,0.41582744462903065
RHL2000W,2019-05-17-11-41-49,1,4,0.5759454897220588,right,heavy poles sphere,stripes-4,right,right,0.3853050775032898,0.4239351038941095
RHL2000W,2019-05-17-11-41-49,1,5,0.6765084332281421,left,heavy poles sphere,stripes-2,left,right,0.4140361090949227,0.43990286980670135
RHL2000W,2019-05-17-11-41-49,1,6,0.6202110838011434,left,stripes-4,stripes-8,left,left,0.29665138433529137,0.40781930400407873
RHL2000W,2019-05-17-11-41-49,1,7,0.5646877390980692,right,heavy poles sphere,heavy poles sphere,right,right,0.40747938564663855,0.3918294573932144
RHL2000W,2019-05-17-11-41-49,1,8,0.6154964482449266,right,stripes-2,stripes-8,right,left,0.14217668415085427,0.4398422256349477
RHL2000W,2019-05-17-11-41-49,1,9,0.542862781286504,left,stripes-2,stripes-4,left,right,0.3684273380195009,0.4158414394378269
RHL2000W,2019-05-17-11-41-49,1,10,0.5210594589594131,right,stripes-4,stripes-2,right,right,0.37919929789586604,0.41583304255254916
RHL2000W,2019-05-17-11-41-49,1,11,0.5927166310193888,right,stripes-4,heavy poles sphere,right,right,0.3720407976666138,0.3677160907336656
RHL2000W,2019-05-17-11-41-49,1,12,0.5227238512155749,right,stripes-8,stripes-4,right,right,0.37684381606686657,0.3437162375234948
RHL2000W,2019-05-17-11-41-49,1,13,0.6007935026630542,right,stripes-2,stripes-2,right,right,0.4027849047638483,0.3118516127306066
RHL2000W,2019-05-17-11-41-49,1,14,0.5328865055492321,right,stripes-2,heavy poles sphere,right,right,0.4329773053959798,0.30394641170005343
RHL2000W,2019-05-17-11-41-49,1,15,0.6739448024219153,right,stripes-8,stripes-8,right,right,0.3677863757734485,0.39173678065935746
RHL2000W,2019-05-17-11-41-49,1,16,0.6187853844509154,left,heavy poles sphere,stripes-4,left,left,1.4411894592340104,0.31170264576530826
RHL2000W,2019-05-17-11-41-49,1,17,0.5935093795954343,right,stripes-8,heavy poles sphere,right,right,0.15503138258145555,0.3999682162343561
RHL2000W,2019-05-17-11-41-49,1,18,0.5805179741771302,left,stripes-4,heavy poles sphere,right,right,0.0703515931381844,0.367497460719278
RHL2000W,2019-05-17-11-41-49,1,19,0.595873304597741,left,stripes-2,stripes-8,right,right,0.2755652503296915,1.3599915782351673
RHL2000W,2019-05-17-11-41-49,1,20,0.6853846147748784,right,stripes-2,stripes-2,right,right,0.6928549969866253,0.5118511151376879
RHL2000W,2019-05-17-11-41-49,1,21,0.6859847804663577,left,heavy poles sphere,stripes-2,left,right,0.5932268857072813,0.43995698306753184
RHL2000W,2019-05-17-11-41-49,1,22,0.5711292828969649,left,stripes-8,stripes-2,left,left,0.5278767262598194,0.39969329598898184
RHL2000W,2019-05-17-11-41-49,1,23,0.5558415855235899,left,stripes-2,heavy poles sphere,left,left,0.8683424361788639,0.3758452087063233
RHL2000W,2019-05-17-11-41-49,1,24,0.6796789871622757,right,stripes-4,stripes-2,right,right,0.43809131954867553,0.415869740051221
RHL2000W,2019-05-17-11-41-49,1,25,0.5229161479458254,left,stripes-8,stripes-4,left,left,0.49400866682935884,0.35186681420282184
RHL2000W,2019-05-17-11-41-49,1,26,0.5776225867828297,right,stripes-2,stripes-4,right,right,0.3640503838000768,0.36783489111121526
RHL2000W,2019-05-17-11-41-49,1,27,0.6617474626303803,right,heavy poles sphere,stripes-8,right,right,0.5887348630590168,0.35981213368586396
RHL2000W,2019-05-17-11-41-49,1,28,0.6513422005214743,right,stripes-4,stripes-8,right,right,0.17931237595121274,0.3759391294233865
RHL2000W,2019-05-17-11-41-49,1,29,0.5378268919242102,right,heavy poles sphere,heavy poles sphere,right,right,0.36892399823591404,0.3759910657140608
RHL2000W,2019-05-17-11-41-49,1,30,0.6477285329220466,right,stripes-4,stripes-4,right,right,0.4083364899402113,0.3360194036467874
RHL2000W,2019-05-17-11-41-49,1,31,0.5905733740939904,left,stripes-8,stripes-8,left,left,0.4257416782202199,0.32783648340910077
RHL2000W,2019-05-17-11-41-49,1,32,0.5256741192994593,left,stripes-4,stripes-4,left,right,0.4218809769499785,0.3358452460256558
RHL2000W,2019-05-17-11-41-49,1,33,0.5874249718818012,right,heavy poles sphere,stripes-4,right,right,0.40867049937833144,0.32793786802449176
RHL2000W,2019-05-17-11-41-49,1,34,0.5184568324389879,left,heavy poles sphere,stripes-8,left,left,0.3909515163841206,0.3677468793130174
RHL2000W,2019-05-17-11-41-49,1,35,0.6845338519155789,right,stripes-8,heavy poles sphere,right,right,0.40559661736142516,0.38386827712702143
RHL2000W,2019-05-17-11-41-49,1,36,0.5361515236437282,left,stripes-2,stripes-8,right,right,0.39104232714362297,0.3838539713224236
RHL2000W,2019-05-17-11-41-49,1,37,0.5815693087752839,right,stripes-8,stripes-8,right,right,0.8717372658124987,0.33571120685610367
RHL2000W,2019-05-17-11-41-49,1,38,0.6283029154169762,left,stripes-4,stripes-8,left,left,0.42079497978193103,0.3437047306806562
RHL2000W,2019-05-17-11-41-49,1,39,0.6473040363674449,left,stripes-4,stripes-2,left,right,0.43548579713524305,0.3839158594773835
RHL2000W,2019-05-17-11-41-49,1,40,0.5551194457456652,left,stripes-8,stripes-4,left,right,0.4514893275591021,0.31984917949966984
RHL2000W,2019-05-17-11-41-49,1,41,0.5125395050079974,left,heavy poles sphere,stripes-2,left,left,0.4721780089926142,0.3758330798714269
RHL2000W,2019-05-17-11-41-49,1,42,0.5680109132803961,left,stripes-2,heavy poles sphere,left,left,0.4795685120534472,0.3599548807364954
RHL2000W,2019-05-17-11-41-49,1,43,0.668939113654611,left,stripes-2,stripes-4,left,left,0.4581959509596345,0.37585298359999797
RHL2000W,2019-05-17-11-41-49,1,44,0.5396660078409006,right,stripes-8,stripes-2,right,right,0.4183415342913577,0.3518534413856287
RHL2000W,2019-05-17-11-41-49,1,45,0.6532103358924315,left,stripes-2,stripes-2,left,right,0.5842173387595722,0.3358038835908701
RHL2000W,2019-05-17-11-41-49,1,46,0.6606070256771451,right,stripes-4,heavy poles sphere,right,right,0.3854699052521937,0.3438409468203645
RHL2000W,2019-05-17-11-41-49,1,47,0.6450787006888683,left,heavy poles sphere,heavy poles sphere,left,left,0.48422816141192015,0.2958322215231419
RHL2000W,2019-05-17-11-41-49,2,0,0.6170864733289029,left,stripes-8,heavy poles sphere,left,left,0.4190642884200315,0.263830136607794
RHL2000W,2019-05-17-11-41-49,2,1,0.5570078738888408,left,stripes-2,stripes-4,left,left,0.45662262344831106,0.2959842984464558
RHL2000W,2019-05-17-11-41-49,2,2,0.5869188313620477,right,stripes-8,stripes-4,right,right,0.46600287733235746,0.32783928237086
RHL2000W,2019-05-17-11-41-49,2,3,0.6888165473832788,left,stripes-8,stripes-2,left,left,0.4292696140355474,0.2719869332026974
RHL2000W,2019-05-17-11-41-49,2,4,0.6461727272387496,left,stripes-2,stripes-2,left,right,0.3906585583854394,0.2878390086948457
RHL2000W,2019-05-17-11-41-49,2,5,0.6752236396843491,left,stripes-8,stripes-8,left,left,0.44742088112570855,0.33593325782385364
RHL2000W,2019-05-17-11-41-49,2,6,0.5242528872894552,right,stripes-4,stripes-8,right,left,0.34624214502446193,0.3518130119377929
RHL2000W,2019-05-17-11-41-49,2,7,0.5613112080529384,left,stripes-2,stripes-8,left,left,0.29514585389779313,0.3436904248760584
RHL2000W,2019-05-17-11-41-49,2,8,0.5726097217966462,right,stripes-4,stripes-4,right,right,0.42987107982071393,0.3518151889084038
RHL2000W,2019-05-17-11-41-49,2,9,0.5945168295383134,right,stripes-4,stripes-2,right,right,0.49405220623475543,0.31171073165478447
RHL2000W,2019-05-17-11-41-49,2,10,0.6454455520958775,left,heavy poles sphere,stripes-8,left,left,0.6840547501801666,0.35184815445791173
RHL2000W,2019-05-17-11-41-49,2,11,0.6180297579740165,right,stripes-2,heavy poles sphere,right,left,0.8338315485284511,0.3757149014859351
RHL2000W,2019-05-17-11-41-49,2,12,0.6101040621163369,right,stripes-4,heavy poles sphere,right,right,0.3927817263875113,0.3758109991731544
RHL2000W,2019-05-17-11-41-49,2,13,0.622116362074405,left,heavy poles sphere,heavy poles sphere,left,left,0.36289379059689963,0.36784142202213843
RHL2000W,2019-05-17-11-41-49,2,14,0.629390032931034,left,heavy poles sphere,stripes-2,left,right,0.38901774479563755,0.31182393410836085
RHL2000W,2019-05-17-11-41-49,2,15,0.5478489089355448,left,heavy poles sphere,stripes-4,left,left,0.6111449059826555,0.3198986278243865
RHL2000W,2019-05-17-11-41-49,2,16,0.5699734193653523,right,stripes-2,stripes-4,right,right,1.1244726289528444,0.3677148467504594
RHL2000W,2019-05-17-11-41-49,2,17,0.5566116056213147,right,stripes-4,stripes-2,right,right,0.45723901702922376,0.2878175499877216
RHL2000W,2019-05-17-11-41-49,2,18,0.575065212783639,right,heavy poles sphere,stripes-4,right,right,0.36467486327092047,0.27195365665693316
RHL2000W,2019-05-17-11-41-49,2,19,0.6361889649098533,left,stripes-4,heavy poles sphere,left,left,0.6181811848814505,0.3838300246493418
RHL2000W,2019-05-17-11-41-49,2,20,0.6369583656976847,left,stripes-8,heavy poles sphere,left,left,0.5847258168146254,0.31182611107897173
RHL2000W,2019-05-17-11-41-49,2,21,0.6713002430298618,left,heavy poles sphere,heavy poles sphere,left,left,0.9553198622415948,0.21580710550642834
RHL2000W,2019-05-17-11-41-49,2,22,0.5010015788291193,left,stripes-8,stripes-4,left,left,0.27913268260590485,0.2719465037544069
RHL2000W,2019-05-17-11-41-49,2,23,0.5794712836002506,right,stripes-4,stripes-8,right,right,0.25736702288122615,0.3039703583726805
RHL2000W,2019-05-17-11-41-49,2,24,0.6351689518109521,right,stripes-8,stripes-2,right,right,0.43280190379164196,0.28782408089864475
RHL2000W,2019-05-17-11-41-49,2,25,0.599593227610248,right,stripes-2,stripes-8,right,right,0.2830841946356486,0.3117104206589829
RHL2000W,2019-05-17-11-41-49,2,26,0.5985505112557208,left,stripes-2,heavy poles sphere,left,left,0.03608577014074399,0.27972233055243123
RHL2000W,2019-05-17-11-41-49,2,27,0.5975102495554614,left,stripes-8,stripes-8,left,left,1.0789839022377237,0.29583875243451985
RHL2000W,2019-05-17-11-41-49,2,28,0.5282564950554837,right,stripes-2,stripes-2,right,right,0.481418936780301,0.2796962069091933
RHL2000W,2019-05-17-11-41-49,2,29,0.5633139069377419,right,stripes-4,stripes-4,right,right,0.7473731743771168,0.2878383867032426
RHL2000W,2019-05-17-11-41-49,2,30,0.6883112871899035,left,heavy poles sphere,stripes-8,left,left,1.0385074940645609,0.47992802314320215
RHL2000W,2019-05-17-11-41-49,2,31,0.673879606585831,left,heavy poles sphere,stripes-2,left,left,0.4532209519084063,0.7519432569588389
RHL2000W,2019-05-17-11-41-49,2,32,0.6147999049506078,right,stripes-2,stripes-2,right,left,0.3550137802221798,0.3520919751281326
RHL2000W,2019-05-17-11-41-49,2,33,0.6738255858945017,left,stripes-8,heavy poles sphere,left,left,0.45228081174855106,0.30396196148740273
RHL2000W,2019-05-17-11-41-49,2,34,0.5430627258213421,right,stripes-4,stripes-2,right,right,0.3758567155491619,0.2797245075230421
RHL2000W,2019-05-17-11-41-49,2,35,0.6527001704992867,left,stripes-2,stripes-4,left,left,0.4665306371243787,0.28784585060111567
RHL2000W,2019-05-17-11-41-49,2,36,0.5572426263255726,right,stripes-8,stripes-2,right,left,0.7493041470038406,0.2798137633035367
RHL2000W,2019-05-17-11-41-49,2,37,0.5296744029439913,right,stripes-2,stripes-8,left,right,2.4539284672450776,0.27167811442041057
RHL2000W,2019-05-17-11-41-49,2,38,0.5696738913043423,left,stripes-4,stripes-8,left,left,0.23898406395528582,0.2878324777839225
RHL2000W,2019-05-17-11-41-49,2,39,0.6047397094052662,right,stripes-4,heavy poles sphere,right,right,0.409869388003699,0.26385563825988356
RHL2000W,2019-05-17-11-41-49,2,40,0.6593891706948148,left,heavy poles sphere,stripes-4,left,left,0.3006650955162513,0.2558440766815693
RHL2000W,2019-05-17-11-41-49,2,41,0.5893105448562577,left,heavy poles sphere,heavy poles sphere,left,left,0.09634835007409492,0.28780386617472686
RHL2000W,2019-05-17-11-41-49,2,42,0.6013828333985201,left,stripes-4,stripes-4,left,right,0.3841366664614725,0.3036898402042425
RHL2000W,2019-05-17-11-41-49,2,43,0.5500706217616489,left,heavy poles sphere,stripes-8,left,left,0.4069864573789346,0.2797049147902726
RHL2000W,2019-05-17-11-41-49,2,44,0.5494852261053772,left,stripes-8,stripes-4,left,left,0.9643533558614763,0.2718364112583913
RHL2000W,2019-05-17-11-41-49,2,45,0.6633881194903282,left,heavy poles sphere,stripes-2,left,right,0.3280952318755226,0.2637097812516913
RHL2000W,2019-05-17-11-41-49,2,46,0.6406341030835322,left,stripes-8,stripes-8,left,left,1.526066419984545,0.3598429222656705
RHL2000W,2019-05-17-11-41-49,2,47,0.5423441462050411,right,stripes-2,heavy poles sphere,right,right,0.24466844431844947,0.2878324777839225
RHL2000W,2019-05-17-11-41-49,3,0,0.5848232945324775,right,stripes-4,stripes-2,right,right,0.3332111120025729,0.2638540832808758
RHL2000W,2019-05-17-11-41-49,3,1,0.6529761513336374,right,heavy poles sphere,stripes-8,right,right,0.15485504798971306,0.27970522578607415
RHL2000W,2019-05-17-11-41-49,3,2,0.5415990774946833,right,heavy poles sphere,heavy poles sphere,right,right,0.2377839313471668,1.0478554043907025
RHL2000W,2019-05-17-11-41-49,3,3,0.6896300052819375,right,stripes-2,stripes-2,right,right,0.45334690518802745,0.3438655154850494
RHL2000W,2019-05-17-11-41-49,3,4,0.6064527340635278,right,stripes-2,stripes-8,right,right,0.7000862702220729,0.25581453208496896
RHL2000W,2019-05-17-11-41-49,3,5,0.5694138197803343,left,stripes-4,stripes-8,left,left,0.4053036593622892,0.31197134609510613
RHL2000W,2019-05-17-11-41-49,3,6,0.5439202643265306,left,heavy poles sphere,stripes-4,left,left,0.7474667840988332,0.4559409207590761
RHL2000W,2019-05-17-11-41-49,3,7,0.5939946505570461,left,heavy poles sphere,stripes-2,left,left,0.6991364891937337,0.287836520728888
RHL2000W,2019-05-17-11-41-49,3,8,0.6404920127633257,left,stripes-8,stripes-8,left,left,0.5039567989583702,0.3437289883495396
RHL2000W,2019-05-17-11-41-49,3,9,0.5464097813207646,left,stripes-2,stripes-4,left,right,0.263728751992403,0.29585492421347226
RHL2000W,2019-05-17-11-41-49,3,10,0.5532422008306701,left,stripes-4,heavy poles sphere,left,left,0.4681636758205059,0.2717042380636485
RHL2000W,2019-05-17-11-41-49,3,11,0.6634344324161288,right,stripes-4,stripes-4,left,right,4.370484885917449,0.23184577845040621
RHL2000W,2019-05-17-11-41-49,3,12,0.6194559912806317,left,stripes-8,stripes-2,left,right,0.2775618430605391,0.2557968053274635
RHL2000W,2019-05-17-11-41-49,3,13,0.5494006446368648,right,stripes-8,heavy poles sphere,right,right,0.26653237870095836,0.27983677698921383
RHL2000W,2019-05-17-11-41-49,3,14,0.5598313216933788,left,stripes-8,stripes-4,left,left,0.31730212428738014,2.951764558799823
RHL2000W,2019-05-17-11-41-49,3,15,0.53564857220291,right,stripes-2,heavy poles sphere,right,left,0.30750824605229354,0.31179376752061216
RHL2000W,2019-05-17-11-41-49,3,16,0.5906266282505407,left,stripes-8,stripes-2,left,left,0.4743577782214743,0.24798054908160339
RHL2000W,2019-05-17-11-41-49,3,17,0.5139507319410395,left,stripes-2,stripes-4,left,left,0.9918357395076782,0.8477800190203197
RHL2000W,2019-05-17-11-41-49,3,18,0.694661026924875,left,stripes-4,heavy poles sphere,left,left,0.40162178064974796,0.37599168770566394
RHL2000W,2019-05-17-11-41-49,3,19,0.6957199991967045,left,stripes-2,stripes-2,left,right,0.31755838478784426,0.35984323326147205
RHL2000W,2019-05-17-11-41-49,3,20,0.6211458659997678,right,stripes-8,stripes-8,right,right,0.32909010728735666,0.4158249566626182
RHL2000W,2019-05-17-11-41-49,3,21,0.500829280654044,left,stripes-2,stripes-8,left,left,0.27790580436249,0.3437918094914494
RHL2000W,2019-05-17-11-41-49,3,22,0.5459195393939921,left,heavy poles sphere,stripes-4,left,left,0.903404097306975,0.48783291317795374
RHL2000W,2019-05-17-11-41-49,3,23,0.55853092573087,right,stripes-2,heavy poles sphere,left,left,0.560917225992398,0.3039815542197175
RHL2000W,2019-05-17-11-41-49,3,24,0.6477944476928518,right,heavy poles sphere,heavy poles sphere,right,right,0.3656445480264665,0.32781906764694213
RHL2000W,2019-05-17-11-41-49,3,25,0.5469014850954038,right,stripes-4,stripes-2,right,right,0.3712829010182759,0.26372906298820453
RHL2000W,2019-05-17-11-41-49,3,26,0.647305054778881,right,heavy poles sphere,stripes-8,right,right,0.3599831813498895,0.2478517968397682
RHL2000W,2019-05-17-11-41-49,3,27,0.5134607113084166,left,heavy poles sphere,stripes-2,left,left,0.2996282356775737,0.2558263499236091
RHL2000W,2019-05-17-11-41-49,3,28,0.5375345163671904,right,stripes-8,heavy poles sphere,right,right,0.3125731228760742,0.2799764140818297
RHL2000W,2019-05-17-11-41-49,3,29,0.5977893142501037,left,stripes-4,stripes-4,left,left,0.3521202757415267,0.24795971236608239
RHL2000W,2019-05-17-11-41-49,3,30,0.6090438380565596,right,stripes-4,stripes-8,right,right,0.48694688627938376,0.2639647977689492
RHL2000W,2019-05-17-11-41-49,3,31,0.6519028417823298,right,stripes-8,stripes-4,right,left,0.37367725731610335,0.27183610026258975
RHL2000W,2019-05-17-11-41-49,3,32,0.5922395622656249,right,stripes-8,stripes-4,right,right,0.31517677931560684,0.29583595347230585
RHL2000W,2019-05-17-11-41-49,3,33,0.6241402294326195,right,heavy poles sphere,stripes-2,right,right,0.4500587470975006,0.23189802573688212
RHL2000W,2019-05-17-11-41-49,3,34,0.5424890089544023,right,heavy poles sphere,stripes-8,right,right,0.4657668315567207,0.21564196676172287
RHL2000W,2019-05-17-11-41-49,3,35,0.6684300439580838,left,stripes-2,heavy poles sphere,left,left,2.003760871634313,0.35968618040578804
RHL2000W,2019-05-17-11-41-49,3,36,0.5491840412859682,right,stripes-2,stripes-4,right,right,0.2450733607879556,0.7438567454046279
RHL2000W,2019-05-17-11-41-49,3,37,0.5475389475667947,left,stripes-8,stripes-2,left,left,0.4382943997752591,0.2558873050911643
RHL2000W,2019-05-17-11-41-49,3,38,0.5538117745756027,right,stripes-4,stripes-2,right,right,0.5958588427597533,0.31980875005183407
RHL2000W,2019-05-17-11-41-49,3,39,0.6456572015253675,right,heavy poles sphere,stripes-4,right,right,0.4857619924628125,0.27184698511427996
RHL2000W,2019-05-17-11-41-49,3,40,0.5910629137735828,right,stripes-8,stripes-8,right,right,0.3033461898976384,0.34371250557433086
RHL2000W,2019-05-17-11-41-49,3,41,0.5206762743675907,left,stripes-4,heavy poles sphere,left,left,0.808881603295049,0.28782967882216326
RHL2000W,2019-05-17-11-41-49,3,42,0.6666463501926276,right,stripes-2,stripes-8,right,right,0.3132697533615101,0.351850953419671
RHL2000W,2019-05-17-11-41-49,3,43,0.6258039283724665,left,heavy poles sphere,heavy poles sphere,left,left,0.39937297036385644,0.31186498554779973
RHL2000W,2019-05-17-11-41-49,3,44,0.6500631458538703,right,stripes-4,stripes-4,right,right,0.3995219373296095,0.2558170200513814
RHL2000W,2019-05-17-11-41-49,3,45,0.6362564124486427,right,stripes-2,stripes-2,right,right,0.27497933433187427,0.2636444721438238
RHL2000W,2019-05-17-11-41-49,3,46,0.5054268125259862,right,stripes-4,stripes-8,right,right,0.4318359509848051,0.2719589435846501
RHL2000W,2019-05-17-11-41-49,3,47,0.6594512905995693,left,stripes-8,heavy poles sphere,left,left,0.5699221080035386,0.29594480198556994
RHL2000W,2019-05-17-11-41-49,4,0,0.5349767863619292,left,stripes-8,stripes-2,left,left,0.046572235916301,0.5278593104976608
RHL2000W,2019-05-17-11-41-49,4,1,0.584623134853744,right,stripes-4,stripes-4,right,right,0.4476000146792103,0.2797123786881457
RHL2000W,2019-05-17-11-41-49,4,2,0.6623904488847782,right,heavy poles sphere,stripes-2,right,right,0.39220420727497185,0.2638295146166456
RHL2000W,2019-05-17-11-41-49,4,3,0.5024458055934328,left,heavy poles sphere,stripes-4,left,left,0.4024854158542439,0.2957861941522424
RHL2000W,2019-05-17-11-41-49,4,4,0.5654592686750997,left,stripes-2,heavy poles sphere,left,left,0.5359464440434749,0.2959491559267917
RHL2000W,2019-05-17-11-41-49,4,5,0.6366516709443415,right,stripes-2,stripes-8,right,right,0.32394592654691223,0.27984113092998086
RHL2000W,2019-05-17-11-41-49,4,6,0.5589135444038447,left,stripes-2,stripes-2,left,right,2.444737920769512,0.4239674474529238
RHL2000W,2019-05-17-11-41-49,4,7,0.5015452917135368,left,stripes-4,stripes-2,left,right,1.6031317894257882,0.271979158308568
RHL2000W,2019-05-17-11-41-49,4,8,0.6800817806782121,left,stripes-8,stripes-8,left,left,0.4830553964293358,0.36773039653826345
RHL2000W,2019-05-17-11-41-49,4,9,0.5761730011016787,right,stripes-4,stripes-8,right,right,0.32108632060317177,0.3356841502259158
RHL2000W,2019-05-17-11-41-49,4,10,0.6317283122552236,left,heavy poles sphere,heavy poles sphere,left,left,0.46312461164416163,0.27182148346219037
RHL2000W,2019-05-17-11-41-49,4,11,0.6404600095983891,right,stripes-8,heavy poles sphere,right,right,0.3685461383965958,0.2558126661106144
RHL2000W,2019-05-17-11-41-49,4,12,0.5120969814797106,left,stripes-2,stripes-4,right,right,0.35412682033620513,0.22382084405489877
RHL2000W,2019-05-17-11-41-49,4,13,0.621122788294176,right,stripes-8,stripes-4,right,right,0.38564655083973776,0.22382799695742506
RHL2000W,2019-05-17-11-41-49,4,14,0.5095500513696151,left,heavy poles sphere,stripes-8,left,left,0.2452842159082138,0.21582607624714
RHL2000W,2019-05-17-11-41-49,4,15,0.5796678231393073,left,stripes-4,heavy poles sphere,left,left,0.44431745451220195,0.2319540049720672
RHL2000W,2019-05-17-11-41-49,4,16,0.6571555629041235,right,stripes-2,stripes-4,right,right,0.3738187603830738,0.35184317852599634
RHL2000W,2019-05-17-11-41-49,4,17,0.6814600984711295,right,heavy poles sphere,heavy poles sphere,right,right,0.7910982441799206,0.35982426252030564
RHL2000W,2019-05-17-11-41-49,4,18,0.6489994171195421,left,stripes-8,heavy poles sphere,left,left,0.3668580534526882,0.4477943870242598
RHL2000W,2019-05-17-11-41-49,4,19,0.5577530288914927,left,stripes-2,stripes-8,left,left,0.3422275008570068,0.43983973766853524
RHL2000W,2019-05-17-11-41-49,4,20,0.6062275315644301,right,heavy poles sphere,stripes-8,right,right,0.5107660509570451,0.3280283677886473
RHL2000W,2019-05-17-11-41-49,4,21,0.6267587656462741,left,heavy poles sphere,stripes-4,left,left,0.4683568041828039,0.3356931691023419
RHL2000W,2019-05-17-11-41-49,4,22,0.6041813590595801,left,stripes-2,stripes-2,left,right,0.33100615211787954,0.3597897419917899
RHL2000W,2019-05-17-11-41-49,4,23,0.5845227839433899,left,stripes-8,stripes-2,left,left,0.46244228696332357,0.3119729010741139
RHL2000W,2019-05-17-11-41-49,4,24,0.6565201185030396,right,stripes-2,heavy poles sphere,right,left,0.34978283166583424,0.3678622587372047
RHL2000W,2019-05-17-11-41-49,4,25,0.5521808634798604,left,stripes-8,stripes-4,left,left,0.4740122619405156,0.31176826586943207
RHL2000W,2019-05-17-11-41-49,4,26,0.6278162733670198,right,stripes-4,heavy poles sphere,right,right,0.3526054291151013,0.3279471978971742
RHL2000W,2019-05-17-11-41-49,4,27,0.5428153894239952,left,stripes-4,stripes-2,left,left,0.4787655210207049,0.2958539912260676
RHL2000W,2019-05-17-11-41-49,4,28,0.5176427875227607,right,stripes-8,stripes-8,right,right,0.4023697254342551,0.31171757356105445
RHL2000W,2019-05-17-11-41-49,4,29,0.5444309170183788,right,stripes-4,stripes-8,right,right,0.34322019929823,0.26367961466394263
RHL2000W,2019-05-17-11-41-49,4,30,0.6991146621763529,right,heavy poles sphere,stripes-2,right,right,0.44323643327697937,0.27195116869097546
RHL2000W,2019-05-17-11-41-49,4,31,0.6278549362900823,left,stripes-4,stripes-4,left,right,0.32465499686168187,0.2799748591032767
RHL2000W,2019-05-17-11-41-49,4,32,0.5224437190921843,left,stripes-2,heavy poles sphere,left,left,0.752219110191163,0.26384288743383877
RHL2000W,2019-05-17-11-41-49,4,33,0.6665287361362117,right,stripes-8,heavy poles sphere,right,right,0.34874410585325677,0.29572337300987783
RHL2000W,2019-05-17-11-41-49,4,34,0.6688589505354924,right,stripes-8,stripes-2,right,right,0.39959750929710935,0.2797245075225874
RHL2000W,2019-05-17-11-41-49,4,35,0.6598393417992733,right,heavy poles sphere,stripes-8,right,right,0.29826762926086303,0.3038518689909324
RHL2000W,2019-05-17-11-41-49,4,36,0.6918711131374341,right,stripes-4,heavy poles sphere,right,right,0.2791046929883123,1.3517912422348672
RHL2000W,2019-05-17-11-41-49,4,37,0.6257311151937328,left,stripes-2,stripes-8,left,left,0.34710049330124093,0.2478182092991119
RHL2000W,2019-05-17-11-41-49,4,38,0.6595359725977135,right,heavy poles sphere,heavy poles sphere,right,right,0.2745955655736907,0.27182490441555274
RHL2000W,2019-05-17-11-41-49,4,39,0.5912866829280977,left,stripes-4,stripes-4,left,right,0.28414562313901115,0.3358390261105342
RHL2000W,2019-05-17-11-41-49,4,40,0.6400580002482438,right,stripes-4,stripes-8,right,right,0.3130072729463791,0.3039784442621567
RHL2000W,2019-05-17-11-41-49,4,41,0.6506151826016954,left,stripes-4,stripes-2,left,right,0.4132645286326806,0.30369668211096723
RHL2000W,2019-05-17-11-41-49,4,42,0.5662554855024289,left,stripes-8,stripes-4,left,left,0.44875132095421577,0.23969655522478206
RHL2000W,2019-05-17-11-41-49,4,43,0.520967259698823,right,stripes-2,stripes-2,left,left,0.5274522170575437,0.23194218713388182
RHL2000W,2019-05-17-11-41-49,4,44,0.543449886741513,right,stripes-2,stripes-4,left,left,0.32952985528118006,0.23187967698731882
RHL2000W,2019-05-17-11-41-49,4,45,0.5315410756156316,left,stripes-8,stripes-8,left,left,0.39719071316903864,0.23980726971240074
RHL2000W,2019-05-17-11-41-49,4,46,0.5400881334989204,right,heavy poles sphere,stripes-2,right,right,0.3828177334753491,0.263773224385659
RHL2000W,2019-05-17-11-41-49,4,47,0.6435708066658344,left,heavy poles sphere,stripes-4,left,left,0.42757530917606346,0.2638055679435638
RHL2000W,2019-05-17-11-41-49,5,0,0.5939448860688546,right,heavy poles sphere,stripes-8,right,right,0.37742102418360446,0.19972271618689774
RHL2000W,2019-05-17-11-41-49,5,1,0.5735104678862997,left,stripes-2,heavy poles sphere,left,right,0.4115801756379369,0.23984303422366793
RHL2000W,2019-05-17-11-41-49,5,2,0.6156039283162749,left,stripes-4,stripes-8,left,left,0.3118696504843683,0.27170890299976236
RHL2000W,2019-05-17-11-41-49,5,3,0.5659062240476167,right,stripes-8,heavy poles sphere,right,right,0.37001808129298297,0.2399307350260642
RHL2000W,2019-05-17-11-41-49,5,4,0.6019524917252271,right,stripes-8,stripes-4,right,right,0.5447833883481508,0.23983370435144025
RHL2000W,2019-05-17-11-41-49,5,5,0.693762730355404,right,stripes-4,stripes-4,right,right,0.47684947618927254,0.2558506075920377
RHL2000W,2019-05-17-11-41-49,5,6,0.5742635840246415,right,stripes-4,heavy poles sphere,right,right,0.40025464332211413,0.27996895018441137
RHL2000W,2019-05-17-11-41-49,5,7,0.6292050273203894,left,heavy poles sphere,stripes-2,left,right,0.42037389153301774,0.2718945674641873
RHL2000W,2019-05-17-11-41-49,5,8,0.6875563664186879,right,stripes-2,stripes-4,right,right,0.9164310873838986,0.22383421687209193
RHL2000W,2019-05-17-11-41-49,5,9,0.5267318200153307,right,stripes-4,stripes-2,right,right,0.44026549085356237,0.28784958255073434
RHL2000W,2019-05-17-11-41-49,5,10,0.5741959108487658,right,heavy poles sphere,heavy poles sphere,right,right,0.5178751028615807,0.279700249853704
RHL2000W,2019-05-17-11-41-49,5,11,0.669186924715485,right,stripes-2,stripes-8,right,right,0.4816695993567919,0.26388611584297905
RHL2000W,2019-05-17-11-41-49,5,12,0.596021259284517,left,stripes-2,stripes-2,left,left,0.45127847243838914,0.279700249853704
RHL2000W,2019-05-17-11-41-49,5,13,0.6495695176514173,left,heavy poles sphere,stripes-4,left,left,0.47656895802083454,0.22382053305955196
RHL2000W,2019-05-17-11-41-49,5,14,0.6355143869021681,left,stripes-8,stripes-8,left,left,0.5659880117354987,0.2558251059408576
RHL2000W,2019-05-17-11-41-49,5,15,0.6689018942302952,right,stripes-8,stripes-2,right,left,0.41736096468321193,0.22385474259226612
RHL2000W,2019-05-17-11-41-49,5,16,0.6354348774681753,right,heavy poles sphere,heavy poles sphere,left,left,3.527960073120994,0.31982647680979426
RHL2000W,2019-05-17-11-41-49,5,17,0.5586280151342881,right,stripes-2,stripes-4,right,left,0.39643654846986465,0.22384696769768198
RHL2000W,2019-05-17-11-41-49,5,18,0.5650906229396164,left,heavy poles sphere,stripes-4,left,left,0.33318094541482424,0.2238323508972826
RHL2000W,2019-05-17-11-41-49,5,19,0.5335465138566234,left,stripes-2,stripes-2,left,right,0.26410381287041673,0.27187155377760064
RHL2000W,2019-05-17-11-41-49,5,20,0.5724777672697605,right,stripes-2,heavy poles sphere,right,left,0.29240753629801475,0.28785051553768426
RHL2000W,2019-05-17-11-41-49,5,21,0.6785793024023848,right,stripes-8,heavy poles sphere,right,right,0.3785872582548109,0.2557821885266094
RHL2000W,2019-05-17-11-41-49,5,22,0.6934753824547257,left,stripes-4,stripes-2,left,left,0.6447330692362812,0.23991674021726794
RHL2000W,2019-05-17-11-41-49,5,23,0.6188629159484452,left,heavy poles sphere,stripes-2,left,right,0.3366535239865698,0.2638102328801324
RHL2000W,2019-05-17-11-41-49,5,24,0.6615875561629332,right,stripes-2,stripes-8,right,left,0.24548543015953328,0.2719418388187478
RHL2000W,2019-05-17-11-41-49,5,25,0.6214281449916448,right,stripes-4,stripes-8,right,right,0.2463820309149014,0.23983463733839017
RHL2000W,2019-05-17-11-41-49,5,26,0.6214698284289275,left,stripes-8,stripes-8,left,left,0.40927756308701646,0.19189557508980215
RHL2000W,2019-05-17-11-41-49,5,27,0.6643718263016879,left,stripes-4,stripes-4,left,right,0.3342551247442316,0.27969745089285425
RHL2000W,2019-05-17-11-41-49,5,28,0.504963172718664,right,stripes-8,stripes-4,right,right,0.4725571128155934,0.23968691435584333
RHL2000W,2019-05-17-11-41-49,5,29,0.615292300636361,left,heavy poles sphere,stripes-8,left,left,2.8197204272582894,1.0638343661503313
RHL2000W,2019-05-17-11-41-49,5,30,0.5993078759133182,right,stripes-4,heavy poles sphere,right,right,0.2626825622819524,0.4798023808589278
RHL2000W,2019-05-17-11-41-49,5,31,0.5602238576798564,left,stripes-8,stripes-2,left,left,0.3294499293724584,0.2718435641609176
RHL2000W,2019-05-17-11-41-49,5,32,0.5654241122670778,right,heavy poles sphere,stripes-4,right,right,0.30700629890816344,0.2959594187859693
RHL2000W,2019-05-17-11-41-49,5,33,0.5727953264005518,right,stripes-8,stripes-4,right,right,0.8833641530118257,0.2558129771059612
RHL2000W,2019-05-17-11-41-49,5,34,0.6011757396601196,left,stripes-4,stripes-8,left,left,0.4036186843759424,0.3039862191562861
RHL2000W,2019-05-17-11-41-49,5,35,0.6436520228112117,right,stripes-2,stripes-4,right,right,0.3083404706858346,0.28782283691543853
RHL2000W,2019-05-17-11-41-49,5,36,0.6399227184371293,left,stripes-4,stripes-4,left,right,0.35383106337576464,0.40796547200716304
RHL2000W,2019-05-17-11-41-49,5,37,0.58752278331696,left,stripes-2,stripes-2,left,right,0.6032903972600252,0.3198090610476356
RHL2000W,2019-05-17-11-41-49,5,38,0.6665966961589532,right,stripes-4,heavy poles sphere,right,right,0.38798212894016615,0.33573017759772483
RHL2000W,2019-05-17-11-41-49,5,39,0.6393479087244475,left,stripes-4,stripes-2,left,left,1.7565478600699862,0.27979074961785955
RHL2000W,2019-05-17-11-41-49,5,40,0.5866962869272684,right,heavy poles sphere,heavy poles sphere,right,right,0.24440098797094834,0.2717238307959633
RHL2000W,2019-05-17-11-41-49,5,41,0.6452525189501491,left,heavy poles sphere,stripes-8,left,left,0.35068285337365523,0.22388086623504933
RHL2000W,2019-05-17-11-41-49,5,42,0.5411808112627565,right,heavy poles sphere,stripes-2,right,right,0.27417603230333043,0.2799509124306496
RHL2000W,2019-05-17-11-41-49,5,43,0.5516160636810341,left,stripes-2,stripes-8,right,left,0.28511779586096964,0.3518574843310489
RHL2000W,2019-05-17-11-41-49,5,44,0.5489576098655866,left,stripes-2,heavy poles sphere,left,left,0.44599776456198015,0.26380836690532306
RHL2000W,2019-05-17-11-41-49,5,45,0.6287177483838315,left,stripes-8,stripes-2,left,left,0.5435092387515397,0.25585309555845015
RHL2000W,2019-05-17-11-41-49,5,46,0.6439449098828486,left,stripes-8,stripes-8,left,left,0.5248678423549791,0.2396903353101152
RHL2000W,2019-05-17-11-41-49,5,47,0.5913456247952713,left,stripes-8,heavy poles sphere,left,left,0.48682901888878405,0.3038459600720671
RHL2000W,2019-05-17-11-41-49,6,0,0.6629789448419178,left,heavy poles sphere,stripes-2,left,right,0.34971534558826534,0.27973445938641817
RHL2000W,2019-05-17-11-41-49,6,1,0.6668875401418959,right,stripes-4,heavy poles sphere,right,right,0.29846293459377193,0.28781879397047305
RHL2000W,2019-05-17-11-41-49,6,2,0.6048017108956713,left,stripes-2,heavy poles sphere,left,left,0.4033440751263697,0.26380743391837314
RHL2000W,2019-05-17-11-41-49,6,3,0.6981428813411263,right,stripes-8,stripes-4,right,right,0.30018647305314516,0.2558303928690293
RHL2000W,2019-05-17-11-41-49,6,4,0.57077386044295,left,stripes-2,stripes-8,left,left,0.4863068570211908,0.23184640044109983
RHL2000W,2019-05-17-11-41-49,6,5,0.5717650658138153,left,heavy poles sphere,stripes-8,left,left,0.5791378451349374,0.19984089457284426
RHL2000W,2019-05-17-11-41-49,6,6,0.6983213036004856,left,stripes-2,stripes-2,left,right,0.503124885320176,0.239940686889895
RHL2000W,2019-05-17-11-41-49,6,7,0.661811493015315,left,stripes-4,stripes-2,left,right,0.22981279921623354,0.2878206599452824
RHL2000W,2019-05-17-11-41-49,6,8,0.6044748826143538,right,stripes-4,stripes-8,right,right,0.32022113041966804,0.28782470289024786
RHL2000W,2019-05-17-11-41-49,6,9,0.5484447429064679,left,stripes-8,heavy poles sphere,left,left,0.3462956362945988,0.19985737734805298
RHL2000W,2019-05-17-11-41-49,6,10,0.538946238040286,left,stripes-8,stripes-8,left,left,0.31003042160500627,0.19974479688517022
RHL2000W,2019-05-17-11-41-49,6,11,0.5920469546126971,left,stripes-8,stripes-2,left,right,0.2969014249210886,0.23195804791703267
RHL2000W,2019-05-17-11-41-49,6,12,0.6190346651926801,right,stripes-4,stripes-4,right,right,0.33842060185179434,0.23982188651280012
RHL2000W,2019-05-17-11-41-49,6,13,0.5456169585198827,left,stripes-2,stripes-4,left,right,0.26871463589577615,0.24784495493349823
RHL2000W,2019-05-17-11-41-49,6,14,0.5954900165616571,right,heavy poles sphere,stripes-4,right,right,0.2963917028819196,0.2078599200494864
RHL2000W,2019-05-17-11-41-49,6,15,0.5444818808138835,right,heavy poles sphere,heavy poles sphere,right,right,0.4633553704916267,0.23187283508013934
RHL2000W,2019-05-17-11-41-49,6,16,0.5182494883055612,left,heavy poles sphere,stripes-4,left,left,0.35958510678665334,0.2158313631753117
RHL2000W,2019-05-17-11-41-49,6,17,0.5311508098513817,left,stripes-4,stripes-2,left,right,0.36984610064246226,0.19982565578084177
RHL2000W,2019-05-17-11-41-49,6,18,0.6257088602560342,right,heavy poles sphere,stripes-2,right,left,0.4588935144329298,0.2076885613896593
RHL2000W,2019-05-17-11-41-49,6,19,0.5252273545398513,left,stripes-2,stripes-8,left,left,0.2503291890043329,0.2238223990334518
RHL2000W,2019-05-17-11-41-49,6,20,0.5854696391164094,right,stripes-4,stripes-8,right,right,0.2632687892755712,0.24798770198412967
RHL2000W,2019-05-17-11-41-49,6,21,0.6848026594611477,left,stripes-2,stripes-2,left,right,0.3988427226058775,0.20780456280499493
RHL2000W,2019-05-17-11-41-49,6,22,0.6438876400469271,left,stripes-8,heavy poles sphere,left,left,0.32496537062252173,0.23984272322832112
RHL2000W,2019-05-17-11-41-49,6,23,0.605027052828685,right,stripes-4,stripes-4,right,right,0.30922711957555293,0.2079641036261819
RHL2000W,2019-05-17-11-41-49,6,24,0.6761536489958518,left,stripes-8,stripes-8,left,left,0.3567883219848227,0.22379316543265304
RHL2000W,2019-05-17-11-41-49,6,25,0.5946585541740108,right,stripes-8,stripes-2,right,left,0.28498406768812856,0.24778804271045374
RHL2000W,2019-05-17-11-41-49,6,26,0.5691239901584724,right,stripes-2,stripes-4,right,right,0.2639315212227302,0.23980944668255688
RHL2000W,2019-05-17-11-41-49,6,27,0.674406969322683,left,heavy poles sphere,heavy poles sphere,left,left,0.37899155273407814,0.20768669541484996
RHL2000W,2019-05-17-11-41-49,6,28,0.5128636329429299,right,stripes-2,heavy poles sphere,right,left,0.23118211351447826,0.2318392475399378
RHL2000W,2019-05-17-11-41-49,6,29,0.5754111809601675,right,heavy poles sphere,stripes-8,right,right,0.26222633151337504,0.20790377044977504
RHL2000W,2019-05-17-11-41-49,6,30,0.6962084092772395,left,stripes-8,stripes-4,left,right,0.3903886140724353,0.2717928718529947
RHL2000W,2019-05-17-11-41-49,6,31,0.5069012926911849,right,stripes-4,heavy poles sphere,right,right,0.3281443692048924,0.25582075199963583
RHL2000W,2019-05-17-11-41-49,6,32,0.6069018632124544,right,stripes-4,heavy poles sphere,right,right,0.3767831718960224,0.2078816897519573
RHL2000W,2019-05-17-11-41-49,6,33,0.647709432004201,left,heavy poles sphere,stripes-4,left,left,0.3918300793848175,0.21570820885699504
RHL2000W,2019-05-17-11-41-49,6,34,0.5378875586383658,right,stripes-4,stripes-8,right,right,0.3132933890392451,0.2398514311089457
RHL2000W,2019-05-17-11-41-49,6,35,0.5042859004824158,right,stripes-8,stripes-8,right,right,0.31829544472020643,0.21584815694586723
RHL2000W,2019-05-17-11-41-49,6,36,0.522445321371448,right,stripes-2,stripes-2,right,right,0.37940766505016654,0.23171764820017415
RHL2000W,2019-05-17-11-41-49,6,37,0.6494351626362241,right,stripes-8,stripes-4,right,right,0.36813438002081966,0.25579649433075247
RHL2000W,2019-05-17-11-41-49,6,38,0.529380144014429,left,heavy poles sphere,stripes-2,left,right,0.3383761294589931,0.2238168011099333
RHL2000W,2019-05-17-11-41-49,6,39,0.6676242816980325,right,stripes-8,stripes-2,right,right,0.3046775627135503,0.263712269217649
RHL2000W,2019-05-17-11-41-49,6,40,0.6204495309985866,right,stripes-8,heavy poles sphere,right,right,0.3455728821654702,0.247739527372687
RHL2000W,2019-05-17-11-41-49,6,41,0.6650871755558131,left,stripes-4,stripes-2,right,right,0.1570040286396761,4.575717824845924
RHL2000W,2019-05-17-11-41-49,6,42,0.6528674448507825,left,heavy poles sphere,heavy poles sphere,left,left,0.3556298628072909,0.2638198737477069
RHL2000W,2019-05-17-11-41-49,6,43,0.5124080998004821,left,stripes-2,stripes-8,left,left,0.4220464266900308,0.3036833092937741
RHL2000W,2019-05-17-11-41-49,6,44,0.5264481128314975,left,stripes-4,stripes-4,left,left,0.37004762588912854,0.27980101247794664
RHL2000W,2019-05-17-11-41-49,6,45,0.5918437136603912,left,stripes-2,heavy poles sphere,left,right,0.2169074084786189,0.4080114993794268
RHL2000W,2019-05-17-11-41-49,6,46,0.5740736703429957,left,heavy poles sphere,stripes-8,left,left,0.44911052104907867,0.31184601480708807
RHL2000W,2019-05-17-11-41-49,6,47,0.6914530322631061,left,stripes-2,stripes-4,left,right,0.5257345875170358,0.24794913851110323
RHL2000W,2019-05-17-11-41-49,7,0,0.5361739874741825,left,stripes-2,stripes-8,left,left,0.5355664072340005,0.3036481667732005
RHL2000W,2019-05-17-11-41-49,7,1,0.6690728393599948,left,stripes-4,stripes-4,left,right,0.4259693271105789,0.3759979076203308
RHL2000W,2019-05-17-11-41-49,7,2,0.5435841537107873,left,stripes-8,heavy poles sphere,left,left,0.3487860902796456,0.3677873087608532
RHL2000W,2019-05-17-11-41-49,7,3,0.5473625964739989,right,stripes-2,stripes-2,right,right,0.39357445456062123,0.3359786632036048
RHL2000W,2019-05-17-11-41-49,7,4,0.5937368351081563,left,stripes-8,stripes-8,left,left,0.4997045540349063,0.3518046150520604
RHL2000W,2019-05-17-11-41-49,7,5,0.5270296564617557,right,stripes-8,stripes-4,right,right,0.5071734280254532,0.3436823389865822
RHL2000W,2019-05-17-11-41-49,7,6,0.6601593125273553,right,heavy poles sphere,stripes-8,right,right,0.41504684529081715,0.3758206400416384
RHL2000W,2019-05-17-11-41-49,7,7,0.6170828479283342,right,stripes-4,heavy poles sphere,right,right,0.4310740113915017,0.3358468010046636
RHL2000W,2019-05-17-11-41-49,7,8,0.5581035004551784,left,heavy poles sphere,stripes-2,left,left,0.5625138781861097,0.34380642629184877
RHL2000W,2019-05-17-11-41-49,7,9,0.5256397710644035,right,stripes-4,stripes-2,right,right,0.48057987024094473,0.32782248860075924
RHL2000W,2019-05-17-11-41-49,7,10,0.5387391418860684,left,stripes-4,stripes-8,left,left,0.4659596489227624,0.3917884059537755
RHL2000W,2019-05-17-11-41-49,7,11,0.5906178536840528,right,stripes-2,stripes-4,left,left,0.7273385170110487,0.2797248185188437
RHL2000W,2019-05-17-11-41-49,7,12,0.6158265277138619,left,heavy poles sphere,stripes-4,left,left,0.49462381642752007,0.26369360947228415
RHL2000W,2019-05-17-11-41-49,7,13,0.5135874351664673,right,stripes-2,heavy poles sphere,left,left,0.25134272416107706,0.25580613520014595
RHL2000W,2019-05-17-11-41-49,7,14,0.5813607725049185,right,heavy poles sphere,heavy poles sphere,right,right,0.27363085675006005,0.2878669983119835
RHL2000W,2019-05-17-11-41-49,7,15,0.5215407593348398,right,stripes-8,stripes-2,right,right,0.3979100463438954,0.2399453518264636
RHL2000W,2019-05-17-11-41-49,7,16,0.605639533102913,right,stripes-8,heavy poles sphere,right,right,0.5482139824935075,0.24770998277745093
RHL2000W,2019-05-17-11-41-49,7,17,0.6774095361446805,right,stripes-8,stripes-4,right,right,0.3600882979135349,0.2718121535890532
RHL2000W,2019-05-17-11-41-49,7,18,0.580839750723956,right,stripes-8,stripes-8,right,right,0.5908953505513637,0.22383546085529815
RHL2000W,2019-05-17-11-41-49,7,19,0.5528676852222221,left,stripes-4,stripes-4,left,right,0.44630036342914536,0.25581204411901126
RHL2000W,2019-05-17-11-41-49,7,20,0.5434586675180993,left,stripes-4,heavy poles sphere,left,left,0.4291688514122143,0.2558126661106144
RHL2000W,2019-05-17-11-41-49,7,21,0.5384451562222026,right,heavy poles sphere,heavy poles sphere,right,right,0.2942193975513874,0.2077146850324425
RHL2000W,2019-05-17-11-41-49,7,22,0.6596819804029925,left,heavy poles sphere,stripes-8,left,left,0.3923248736273308,0.2718236604323465
RHL2000W,2019-05-17-11-41-49,7,23,0.6625574338716167,right,stripes-4,stripes-8,right,right,0.3304255230486888,0.2398365033131995
RHL2000W,2019-05-17-11-41-49,7,24,0.5523274338939703,right,heavy poles sphere,stripes-4,right,right,0.33399762026056123,0.2877889383789807
RHL2000W,2019-05-17-11-41-49,7,25,0.5409382764872543,right,heavy poles sphere,stripes-2,right,right,0.4643312751632038,0.23983277136358083
RHL2000W,2019-05-17-11-41-49,7,26,0.6992785030483009,left,stripes-4,stripes-2,left,left,0.40714848616607924,0.28778738339951815
RHL2000W,2019-05-17-11-41-49,7,27,0.63446403722053,right,stripes-8,stripes-2,right,right,0.43307962299877545,0.32794159997320094
RHL2000W,2019-05-17-11-41-49,7,28,0.6067661319342916,right,stripes-2,stripes-2,right,right,0.2885023626349721,0.2958079638547133
RHL2000W,2019-05-17-11-41-49,7,29,0.5540797769727236,right,stripes-2,heavy poles sphere,right,right,0.027422361465141876,0.4158296215991868
RHL2000W,2019-05-17-11-41-49,7,30,0.6698717016565913,left,stripes-2,stripes-4,right,left,2.542328076882768,0.2637418138137946
RHL2000W,2019-05-17-11-41-49,7,31,0.5837920035922963,right,stripes-2,stripes-8,right,left,0.2600235485979283,0.27998387798015756
RHL2000W,2019-05-17-11-41-49,7,32,0.5866405634328888,left,stripes-2,stripes-4,left,left,0.39040105390267854,0.2316989884548093
RHL2000W,2019-05-17-11-41-49,7,33,0.5537693585138515,right,stripes-4,stripes-8,right,right,0.24652975389653875,0.3518322936752156
RHL2000W,2019-05-17-11-41-49,7,34,0.685243808313358,left,stripes-4,heavy poles sphere,left,left,0.31545449852183083,0.2877317151605894
RHL2000W,2019-05-17-11-41-49,7,35,0.5443465270159862,right,stripes-2,heavy poles sphere,left,left,0.4456065319063782,0.28780884210664226
RHL2000W,2019-05-17-11-41-49,7,36,0.6301365397330582,right,stripes-8,stripes-2,right,left,0.23848025083680113,0.29568605351960286
RHL2000W,2019-05-17-11-41-49,7,37,0.5072938553404961,right,stripes-2,stripes-2,left,left,0.4439616753707014,0.263852528301868
RHL2000W,2019-05-17-11-41-49,7,38,0.5632635512396115,right,heavy poles sphere,stripes-4,right,right,0.3055097873475461,0.27984859482785396
RHL2000W,2019-05-17-11-41-49,7,39,0.6321047391448842,left,heavy poles sphere,stripes-2,left,right,0.3690207179151912,0.2159137770495363
RHL2000W,2019-05-17-11-41-49,7,40,0.5035660650633248,left,heavy poles sphere,heavy poles sphere,left,left,0.32743187793494144,0.26379872603683907
RHL2000W,2019-05-17-11-41-49,7,41,0.6439485741315997,right,stripes-2,stripes-8,right,left,0.2929101054342027,0.3279201412669863
RHL2000W,2019-05-17-11-41-49,7,42,0.5084133438771506,left,stripes-4,stripes-4,left,right,0.3351467495658653,0.26396884071345994
RHL2000W,2019-05-17-11-41-49,7,43,0.5615810672285102,right,stripes-8,heavy poles sphere,right,right,0.2567036689415545,0.24783407008180802
RHL2000W,2019-05-17-11-41-49,7,44,0.5788541042067569,right,stripes-4,stripes-2,right,right,0.37233717661911214,0.40779971127085446
RHL2000W,2019-05-17-11-41-49,7,45,0.5821681252309951,left,stripes-8,stripes-4,left,left,0.4772074323009292,0.27969807288354787
RHL2000W,2019-05-17-11-41-49,7,46,0.6897596597196206,left,heavy poles sphere,stripes-8,left,left,0.283743505631719,0.28780853111129545
RHL2000W,2019-05-17-11-41-49,7,47,0.63660890461072,right,stripes-8,stripes-8,right,right,0.33061118751265894,0.26385999220019585
RHL2000W,2019-05-17-11-41-49,8,0,0.6967242806135964,right,stripes-4,stripes-2,right,right,0.29288211581661017,0.3198594423593022
RHL2000W,2019-05-17-11-41-49,8,1,0.5345872565297302,left,stripes-4,stripes-8,left,left,3.0464279338866618,0.21574988228803704
RHL2000W,2019-05-17-11-41-49,8,2,0.5168523747681538,right,stripes-4,heavy poles sphere,right,right,0.19787260245539073,1.191806008313506
RHL2000W,2019-05-17-11-41-49,8,3,0.6878683656851843,left,heavy poles sphere,heavy poles sphere,left,left,1.9479433539900128,0.17590790545000345
RHL2000W,2019-05-17-11-41-49,8,4,0.6977660175422887,right,stripes-8,stripes-2,right,left,0.4168699023912268,0.1277738488643081
RHL2000W,2019-05-17-11-41-49,8,5,0.5381949566060393,right,stripes-2,stripes-2,left,left,0.37318588402649766,0.1997914462481276
RHL2000W,2019-05-17-11-41-49,8,6,0.6038551484399216,right,heavy poles sphere,stripes-8,right,right,0.5107588980545188,0.23195213899816736
RHL2000W,2019-05-17-11-41-49,8,7,0.6753543991282589,left,stripes-4,stripes-4,left,right,0.33277540695326024,0.43183159704403806
RHL2000W,2019-05-17-11-41-49,8,8,0.6028834498239805,right,heavy poles sphere,stripes-4,right,right,0.5982659498831708,0.3037209397789411
RHL2000W,2019-05-17-11-41-49,8,9,0.5917133304315242,left,stripes-2,stripes-4,right,left,0.6414446001499527,0.4798558721286099
RHL2000W,2019-05-17-11-41-49,8,10,0.5908242961720178,right,stripes-2,stripes-8,right,right,0.29992119367580017,0.35992906808860425
RHL2000W,2019-05-17-11-41-49,8,11,0.6469736034701189,left,stripes-8,stripes-8,left,left,0.3026601332676364,0.3119881398661164
RHL2000W,2019-05-17-11-41-49,8,12,0.5762130297797727,right,stripes-2,heavy poles sphere,right,right,0.3276131884585993,0.32794719789671944
RHL2000W,2019-05-17-11-41-49,8,13,0.5686062797684837,left,stripes-8,stripes-4,left,left,0.5177342217866681,0.2798401979425762
RHL2000W,2019-05-17-11-41-49,8,14,0.5479994534280312,left,stripes-8,heavy poles sphere,left,left,0.27187248676636955,0.23980882469095377
RHL2000W,2019-05-17-11-41-49,8,15,0.6661244107732016,right,heavy poles sphere,stripes-2,right,right,0.4253756362195418,0.30392091004887334
RHL2000W,2019-05-17-11-41-49,8,16,0.611221692321121,left,stripes-8,stripes-8,left,left,0.4509705866439617,0.27172600776611944
RHL2000W,2019-05-17-11-41-49,8,17,0.5930897765774077,left,stripes-8,stripes-2,right,right,0.26155613566697866,2.375843653728225
RHL2000W,2019-05-17-11-41-49,8,18,0.5798522889211875,right,stripes-4,heavy poles sphere,right,right,0.4674399887053369,0.311931849634675
RHL2000W,2019-05-17-11-41-49,8,19,0.696912280750204,left,stripes-8,heavy poles sphere,left,left,0.45679336011562555,0.4718259618011871
RHL2000W,2019-05-17-11-41-49,8,20,0.5031449421162275,left,stripes-2,stripes-2,left,right,0.3187678472686457,0.41582744462903065
RHL2000W,2019-05-17-11-41-49,8,21,0.584677583716909,right,heavy poles sphere,stripes-2,right,left,0.3702597249921382,0.4318129372986732
RHL2000W,2019-05-17-11-41-49,8,22,0.548064333860428,left,stripes-2,heavy poles sphere,left,left,0.6923362560710302,0.3998170722979921
RHL2000W,2019-05-17-11-41-49,8,23,0.5575191884377247,right,heavy poles sphere,stripes-4,right,right,0.41766822848785523,0.439689837716287
RHL2000W,2019-05-17-11-41-49,8,24,0.6561522361336144,right,stripes-8,stripes-4,right,right,0.2515678850859331,0.4556887032031227
RHL2000W,2019-05-17-11-41-49,8,25,0.6652278651972812,left,heavy poles sphere,stripes-8,left,left,0.2690038619448387,0.27970678076417244
RHL2000W,2019-05-17-11-41-49,8,26,0.5564323966764065,left,stripes-4,stripes-2,left,left,0.3191463290995671,0.3838122978922911
RHL2000W,2019-05-17-11-41-49,8,27,0.5570348030729433,left,stripes-4,stripes-8,left,left,0.3319189246512906,0.3438353488973007
RHL2000W,2019-05-17-11-41-49,8,28,0.6046865046437506,left,heavy poles sphere,heavy poles sphere,left,left,0.45806408876069327,0.35187490009229805
RHL2000W,2019-05-17-11-41-49,8,29,0.6569298778090953,right,stripes-4,stripes-4,right,right,0.2941012191658956,0.32792667217745475
RHL2000W,2019-05-17-11-41-49,8,30,0.6903721547945509,right,stripes-2,stripes-8,right,right,1.0328256016682644,0.3358051275736216
RHL2000W,2019-05-17-11-41-49,8,31,0.5656584032610327,right,stripes-2,stripes-4,right,right,0.2977370705075373,0.3198137259842042
RHL2000W,2019-05-17-11-41-49,8,32,0.6713273131215617,left,stripes-8,stripes-8,left,left,0.5652263831379969,0.28781319604695454
RHL2000W,2019-05-17-11-41-49,8,33,0.544000318494708,right,stripes-4,stripes-8,right,right,0.24256953398526093,0.31981994589932583
RHL2000W,2019-05-17-11-41-49,8,34,0.6958341893877715,left,heavy poles sphere,stripes-8,left,left,0.40081194771028095,0.3277114631164295
RHL2000W,2019-05-17-11-41-49,8,35,0.6706431734184368,right,stripes-4,stripes-2,right,right,0.3994050029268692,0.4319625262560294
RHL2000W,2019-05-17-11-41-49,8,36,0.6604052665509559,right,heavy poles sphere,stripes-4,right,right,0.2842407878388258,0.3356763753317864
RHL2000W,2019-05-17-11-41-49,8,37,0.688495486598797,left,stripes-2,stripes-2,left,right,0.2781794806242033,0.3518207868319223
RHL2000W,2019-05-17-11-41-49,8,38,0.5020664994249182,right,stripes-2,stripes-8,right,left,0.34388293124720803,0.38382442672627803
RHL2000W,2019-05-17-11-41-49,8,39,0.6040124781037438,right,stripes-8,heavy poles sphere,right,right,0.26661665854953753,0.3357444834018679
RHL2000W,2019-05-17-11-41-49,8,40,0.5636948755259987,left,heavy poles sphere,heavy poles sphere,left,left,0.42954142432336084,0.3119051039993792
RHL2000W,2019-05-17-11-41-49,8,41,0.572029307537972,right,stripes-4,stripes-4,right,right,0.34436186470611574,0.31167901008757326
RHL2000W,2019-05-17-11-41-49,8,42,0.525968918735684,right,stripes-4,heavy poles sphere,right,right,0.2573334353401151,0.2877267392277645
RHL2000W,2019-05-17-11-41-49,8,43,0.623702524031801,right,heavy poles sphere,stripes-2,right,right,0.394753750453674,0.2878007562167113
RHL2000W,2019-05-17-11-41-49,8,44,0.6803408628633758,left,stripes-2,stripes-4,right,left,0.2836020025642938,0.35181301193824766
RHL2000W,2019-05-17-11-41-49,8,45,0.673035932683822,right,stripes-2,heavy poles sphere,right,left,0.38302485664644337,0.4317180835951149
RHL2000W,2019-05-17-11-41-49,8,46,0.5163663352895349,right,stripes-8,stripes-4,right,right,0.2243010214961032,0.3359780412120017
RHL2000W,2019-05-17-11-41-49,8,47,0.6881350885069748,left,stripes-8,stripes-2,left,right,0.34980553435616457,0.26393805213410815
RHL2000W,2019-05-17-11-41-49,9,0,0.5689756800283597,left,stripes-2,stripes-8,right,right,0.398490053423302,0.24795473643371224
RHL2000W,2019-05-17-11-41-49,9,1,0.5807627673704578,left,heavy poles sphere,stripes-2,left,left,0.2860473621649362,0.34383192794302886
RHL2000W,2019-05-17-11-41-49,9,2,0.553178289636296,left,heavy poles sphere,heavy poles sphere,left,left,0.3036235981089703,0.3358017066202592
RHL2000W,2019-05-17-11-41-49,9,3,0.6694361441422669,left,stripes-4,stripes-4,left,left,0.35438401382361917,0.27998792092512303
RHL2000W,2019-05-17-11-41-49,9,4,0.6913600878649698,left,stripes-4,stripes-2,left,right,0.4205228584996803,0.3038310322754114
RHL2000W,2019-05-17-11-41-49,9,5,0.577298150848537,right,heavy poles sphere,stripes-8,right,right,0.24860720552351268,0.2878418076570597
RHL2000W,2019-05-17-11-41-49,9,6,0.5781569356340087,left,stripes-2,heavy poles sphere,left,left,0.276270899692463,0.27183672225419286
RHL2000W,2019-05-17-11-41-49,9,7,0.5069966726008193,right,stripes-2,stripes-4,left,left,0.3532504343056644,0.23981442261447228
RHL2000W,2019-05-17-11-41-49,9,8,0.6699203062432494,right,stripes-8,stripes-2,right,right,0.3180124385862655,0.30395356460212497
RHL2000W,2019-05-17-11-41-49,9,9,0.5493519971220142,right,stripes-8,heavy poles sphere,right,right,0.3196165546769407,0.3599586126856593
RHL2000W,2019-05-17-11-41-49,9,10,0.5823347424569576,left,stripes-2,stripes-2,left,right,0.40441234553600225,0.32780662781715364
RHL2000W,2019-05-17-11-41-49,9,11,0.5215969570174586,left,heavy poles sphere,stripes-4,left,left,0.30674661745524645,0.26373963684454793
RHL2000W,2019-05-17-11-41-49,9,12,0.647985480257737,right,stripes-4,stripes-8,right,right,0.3528336999970634,0.2717754560908361
RHL2000W,2019-05-17-11-41-49,9,13,0.6006782564950356,right,stripes-8,stripes-8,right,right,0.3742709482075952,0.27182956935121183
RHL2000W,2019-05-17-11-41-49,9,14,0.5550732815050529,left,stripes-8,stripes-4,left,right,0.6044927068387551,0.2398361923169432
RHL2000W,2019-05-17-11-41-49,9,15,0.606566280511351,right,stripes-4,heavy poles sphere,right,right,0.34644242628928623,0.2718644008764386
RHL2000W,2019-05-17-11-41-49,9,16,0.555402632830289,left,stripes-8,stripes-8,left,right,0.354677593812994,0.30383352024182386
RHL2000W,2019-05-17-11-41-49,9,17,0.6780794579117525,left,heavy poles sphere,stripes-2,left,right,0.29344812808540155,0.31984606954210903
RHL2000W,2019-05-17-11-41-49,9,18,0.5147257918229143,left,stripes-2,stripes-2,left,right,0.7916667444160339,0.7199980842660807
RHL2000W,2019-05-17-11-41-49,9,19,0.564880015679678,left,stripes-2,heavy poles sphere,left,left,0.30789170381558506,0.26386030319645215
RHL2000W,2019-05-17-11-41-49,9,20,0.6612484916100763,right,stripes-4,stripes-4,right,right,0.4420151529575378,0.319829275772463
RHL2000W,2019-05-17-11-41-49,9,21,0.5734729652067551,right,stripes-2,stripes-4,right,right,0.2754595117739882,0.22385256562120048
RHL2000W,2019-05-17-11-41-49,9,22,0.6707157174314211,left,stripes-4,stripes-8,left,left,0.43500935164229304,0.2238118251780179
RHL2000W,2019-05-17-11-41-49,9,23,0.5266084873381096,right,stripes-4,stripes-2,right,right,0.3945254795708024,0.303826056343496
RHL2000W,2019-05-17-11-41-49,9,24,0.549525323292244,left,heavy poles sphere,stripes-4,left,left,0.26471802948071854,0.29583626446856215
RHL2000W,2019-05-17-11-41-49,9,25,0.6906718590004602,left,heavy poles sphere,heavy poles sphere,left,left,0.38439137198201934,0.2797357033705339
RHL2000W,2019-05-17-11-41-49,9,26,0.6489443369618026,left,stripes-8,stripes-4,left,right,0.25904142401213903,0.29580018896103866
RHL2000W,2019-05-17-11-41-49,9,27,0.6771927567773299,left,stripes-8,stripes-2,left,left,0.25659606441058713,0.2958956646571096
RHL2000W,2019-05-17-11-41-49,9,28,0.591624834911073,left,stripes-8,heavy poles sphere,left,left,0.26745572509025806,0.2558720662991618
RHL2000W,2019-05-17-11-41-49,9,29,0.6642213780264558,right,stripes-4,heavy poles sphere,right,right,0.7562993744631967,0.2799953848225414
RHL2000W,2019-05-17-11-41-49,9,30,0.6303392082162813,left,heavy poles sphere,stripes-8,left,left,0.3696243606700591,0.3198491795001246
RHL2000W,2019-05-17-11-41-49,9,31,0.5894022016326744,left,stripes-2,stripes-8,left,left,1.1889314745731099,0.24782940514523943
RHL2000W,2019-05-17-11-41-49,9,32,0.5768279686646631,right,heavy poles sphere,heavy poles sphere,right,right,0.26922529092098557,0.36795120352235244
RHL2000W,2019-05-17-11-41-49,9,33,0.659321376449634,left,stripes-4,heavy poles sphere,left,left,0.33006943291184143,0.30380708560278435
RHL2000W,2019-05-17-11-41-49,9,34,0.6908605292369163,right,stripes-8,stripes-8,right,right,0.2761035839776014,0.3278554541502672
RHL2000W,2019-05-17-11-41-49,9,35,0.6261242297621258,left,stripes-2,stripes-8,left,right,0.33044480478474725,0.27965142352059047
RHL2000W,2019-05-17-11-41-49,9,36,0.6906959042721773,right,stripes-8,heavy poles sphere,right,right,0.3424293370999294,0.4318393719377127
RHL2000W,2019-05-17-11-41-49,9,37,0.6207479100424786,right,heavy poles sphere,stripes-2,right,left,0.49516899198260944,0.5919633099647399
RHL2000W,2019-05-17-11-41-49,9,38,0.6753378484091785,right,stripes-8,stripes-2,right,left,0.39153992034789553,0.39986527664041205
RHL2000W,2019-05-17-11-41-49,9,39,0.5452916388027391,right,heavy poles sphere,stripes-8,right,right,0.3063547628071319,0.3518419345427901
RHL2000W,2019-05-17-11-41-49,9,40,0.5771085291551145,right,stripes-4,stripes-8,right,right,0.2318286736835944,0.3438039383263458
RHL2000W,2019-05-17-11-41-49,9,41,0.5249993376276499,right,stripes-4,stripes-4,right,right,0.298818713734363,0.34382197607919807
RHL2000W,2019-05-17-11-41-49,9,42,0.5168545013401022,left,stripes-2,stripes-2,right,left,0.39564661925851397,0.3278865537258753
RHL2000W,2019-05-17-11-41-49,9,43,0.6690752958073647,left,stripes-4,stripes-2,left,right,0.3536771204780962,0.29582600160847505
RHL2000W,2019-05-17-11-41-49,9,44,0.6419513075704415,left,stripes-8,stripes-4,left,left,0.4930965162875509,0.3438026943422301
RHL2000W,2019-05-17-11-41-49,9,45,0.6305756801374691,left,stripes-2,heavy poles sphere,left,right,0.25843778125636163,0.23195866990863578
RHL2000W,2019-05-17-11-41-49,9,46,0.6014209824683228,right,heavy poles sphere,stripes-4,right,right,0.2314393070018923,0.2878271908557508
RHL2000W,2019-05-17-11-41-49,9,47,0.5832687276525386,left,stripes-2,stripes-4,left,left,0.21046855242002493,1.759823578329815
RHL2000W,2019-05-17-11-41-49,10,0,0.5350650124861878,right,stripes-2,stripes-8,right,right,0.24976690868334117,0.30381703746752464
RHL2000W,2019-05-17-11-41-49,10,1,0.5881023898276749,right,stripes-4,stripes-4,right,right,0.2514543716361004,0.28782905683056015
RHL2000W,2019-05-17-11-41-49,10,2,0.6040194708265586,left,stripes-8,stripes-2,left,right,0.3809178604233239,0.279943137536975
RHL2000W,2019-05-17-11-41-49,10,3,0.5269297355304219,right,heavy poles sphere,stripes-2,right,right,0.38984063955649617,0.22386034051578463
RHL2000W,2019-05-17-11-41-49,10,4,0.6274120735786024,left,heavy poles sphere,stripes-4,left,left,0.34869527952014323,0.2558714443084682
RHL2000W,2019-05-17-11-41-49,10,5,0.6885833733287339,left,stripes-8,stripes-4,left,left,0.5280829164430543,0.2238323508981921
RHL2000W,2019-05-17-11-41-49,10,6,0.5254424382873228,right,stripes-8,stripes-8,right,right,0.300402304104864,0.27968159010924865
RHL2000W,2019-05-17-11-41-49,10,7,0.5303693370255104,left,stripes-4,stripes-8,left,left,0.37521015538004576,0.24781323336719652
RHL2000W,2019-05-17-11-41-49,10,8,0.5247747350551716,right,stripes-4,stripes-2,right,right,0.4008035508250032,0.2158413150391425
RHL2000W,2019-05-17-11-41-49,10,9,0.513828042250806,right,stripes-2,stripes-4,right,right,0.26748153773678496,0.21544977138728427
RHL2000W,2019-05-17-11-41-49,10,10,0.5799800739040475,left,heavy poles sphere,heavy poles sphere,left,left,0.35342521391794435,0.19181067325007461
RHL2000W,2019-05-17-11-41-49,10,11,0.53741747493745,right,stripes-2,stripes-2,right,right,0.3738386641116449,0.2238382598170574
RHL2000W,2019-05-17-11-41-49,10,12,0.5013915986212059,left,stripes-4,heavy poles sphere,left,left,0.27415084164749715,0.1996810427563105
RHL2000W,2019-05-17-11-41-49,10,13,0.5786205286876183,left,stripes-8,heavy poles sphere,left,left,0.3043233385515123,0.20796348163457878
RHL2000W,2019-05-17-11-41-49,10,14,0.6636658180960618,left,heavy poles sphere,stripes-8,left,left,0.6898781456438883,0.19180818528366217
RHL2000W,2019-05-17-11-41-49,10,15,0.6192060864889954,right,stripes-2,heavy poles sphere,left,left,0.30988954052827467,0.21581923434132477
RHL2000W,2019-05-17-11-41-49,10,16,0.5943851047431129,left,heavy poles sphere,heavy poles sphere,left,left,0.3070153177850443,0.2238435467452291
RHL2000W,2019-05-17-11-41-49,10,17,0.649105668188814,right,stripes-4,heavy poles sphere,right,right,1.724371928527944,0.2238590965316689
RHL2000W,2019-05-17-11-41-49,10,18,0.6077317854511227,left,heavy poles sphere,stripes-2,left,left,0.3015265537496816,0.20795570674090413
RHL2000W,2019-05-17-11-41-49,10,19,0.6282893714597529,right,stripes-4,stripes-2,right,right,0.31042911815893603,0.24785739476374147
RHL2000W,2019-05-17-11-41-49,10,20,0.6365032467997035,left,stripes-4,stripes-4,left,right,0.30929584963723755,0.2797982135161874
RHL2000W,2019-05-17-11-41-49,10,21,0.5475319048357978,left,heavy poles sphere,stripes-8,left,left,0.3282146542442206,0.24786796861917537
RHL2000W,2019-05-17-11-41-49,10,22,0.6279750647439787,right,stripes-8,stripes-4,right,right,0.5750762406087233,0.24003274163260357
RHL2000W,2019-05-17-11-41-49,10,23,0.6339216477732803,right,stripes-2,stripes-2,right,right,0.3884259198785003,0.2718336122961773
RHL2000W,2019-05-17-11-41-49,10,24,0.6369082527470902,right,stripes-2,heavy poles sphere,right,right,0.24069858353868767,0.1996760668243951
RHL2000W,2019-05-17-11-41-49,10,25,0.5684899524421134,right,stripes-8,stripes-2,right,right,0.29561265852225915,0.2319907024711938
RHL2000W,2019-05-17-11-41-49,10,26,0.6588812194545227,right,heavy poles sphere,stripes-4,right,right,0.23249638156448782,0.21583416213707096
RHL2000W,2019-05-17-11-41-49,10,27,0.5314260913830142,left,stripes-8,heavy poles sphere,left,left,0.12236127878895786,0.23172200214139593
RHL2000W,2019-05-17-11-41-49,10,28,0.6687273938126042,left,stripes-2,stripes-4,left,left,0.3125659699744574,0.19182311308031785
RHL2000W,2019-05-17-11-41-49,10,29,0.6551950475811175,right,stripes-4,stripes-8,right,right,0.23347632918012096,0.23979669585696683
RHL2000W,2019-05-17-11-41-49,10,30,0.5478205626193117,left,stripes-2,stripes-8,right,right,0.31994496619154233,0.2477292645144189
RHL2000W,2019-05-17-11-41-49,10,31,0.5923157957882279,left,stripes-8,stripes-8,left,left,0.3607793304763618,0.23974444857049093
RHL2000W,2019-05-17-11-41-49,10,32,0.6546084012867104,left,stripes-8,heavy poles sphere,left,left,0.254388305565044,0.2636960974386966
RHL2000W,2019-05-17-11-41-49,10,33,0.6920263022879021,right,stripes-2,stripes-2,right,right,0.28510380105217337,0.3198249218312412
RHL2000W,2019-05-17-11-41-49,10,34,0.6584916493917551,right,stripes-8,stripes-8,right,right,0.2819120516460316,0.29571559811665793
RHL2000W,2019-05-17-11-41-49,10,35,0.5848581738382841,right,heavy poles sphere,heavy poles sphere,right,right,0.31683500866802206,0.26382298370572244
RHL2000W,2019-05-17-11-41-49,10,36,0.5772208919959205,left,stripes-4,stripes-8,left,left,0.5016967928249869,0.24781883128980553
RHL2000W,2019-05-17-11-41-49,10,37,0.5007886185190497,right,heavy poles sphere,stripes-2,right,right,0.34724572831783007,0.28781817197977944
RHL2000W,2019-05-17-11-41-49,10,38,0.5250672702823782,left,stripes-2,stripes-4,right,left,0.24419790774481953,0.3918913455481743
RHL2000W,2019-05-17-11-41-49,10,39,0.6728562125458395,right,stripes-4,stripes-2,right,right,0.2789134306003689,0.25582603892780753
RHL2000W,2019-05-17-11-41-49,10,40,0.546757131307451,right,heavy poles sphere,stripes-8,right,right,0.30787957498068863,0.2558403447328601
RHL2000W,2019-05-17-11-41-49,10,41,0.6393746141951356,right,heavy poles sphere,stripes-4,right,right,0.9241136154560081,0.9598171718171216
RHL2000W,2019-05-17-11-41-49,10,42,0.5290998454696814,right,stripes-4,heavy poles sphere,right,right,0.45135155644038605,0.22382986293177964
RHL2000W,2019-05-17-11-41-49,10,43,0.5368864242143861,left,stripes-8,stripes-4,left,left,0.5054557984849453,0.39194670279175625
RHL2000W,2019-05-17-11-41-49,10,44,0.6262354082943041,left,stripes-8,stripes-2,left,left,0.6355459437136233,0.5197124657670429
RHL2000W,2019-05-17-11-41-49,10,45,0.5678414278965951,right,stripes-2,heavy poles sphere,right,left,0.2865378024671372,0.3359220619768166
RHL2000W,2019-05-17-11-41-49,10,46,0.5867394458481636,left,stripes-4,stripes-4,left,right,0.30933814505988266,0.3118366849339509
RHL2000W,2019-05-17-11-41-49,10,47,0.613255825436525,right,stripes-2,stripes-8,right,left,0.29087246126346145,0.3038515579955856
