Participant,Session,Block,Trial,OnsetDelay,Bias,Shape1,Shape2,Response1,Response2,RT1,RT2
MND1999m,2019-05-15-12-10-12,0,0,0.5709134559066171,right,stripes-2,stripes-2,right,right,25.386123704633064,1.4559371518816988
MND1999m,2019-05-15-12-10-12,0,1,0.5008946951472979,right,stripes-4,stripes-2,left,right,10.556765079623801,0.9359595309961151
MND1999m,2019-05-15-12-10-12,0,2,0.631545542358741,right,stripes-8,heavy poles sphere,right,right,1.9668953300542853,0.38382452733549144
MND1999m,2019-05-15-12-10-12,0,3,0.66638190932402,left,stripes-4,stripes-4,left,right,5.3387708529135125,0.3598344642105076
MND1999m,2019-05-15-12-10-12,0,4,0.5860557252976984,left,stripes-4,heavy poles sphere,left,left,4.394744453270505,0.5598221488553463
MND1999m,2019-05-15-12-10-12,0,5,0.6310876063047575,left,stripes-2,stripes-4,left,right,2.8627024492006967,0.2317840035975678
MND1999m,2019-05-15-12-10-12,0,6,0.6765911977042667,left,stripes-8,stripes-2,right,right,5.7320694959225875,0.4158267241964495
MND1999m,2019-05-15-12-10-12,0,7,0.5981462125325073,left,heavy poles sphere,stripes-8,right,right,3.152928411089306,0.19995160936196044
MND1999m,2019-05-15-12-10-12,0,8,0.6530245436401338,right,heavy poles sphere,stripes-2,right,right,4.373329418957837,0.24779489833235857
MND1999m,2019-05-15-12-10-12,0,9,0.6493573047427664,right,stripes-8,stripes-4,right,right,1.5503642048597612,0.2238514842802033
MND1999m,2019-05-15-12-10-12,0,10,0.6095946354130928,left,stripes-8,stripes-8,left,left,2.332081064892918,0.2638717237578021
MND1999m,2019-05-15-12-10-12,0,11,0.5643238131646321,right,stripes-2,stripes-8,right,left,1.8426567206697655,0.22382691576876823
MND1999m,2019-05-15-12-10-12,0,12,0.5935705912333273,right,stripes-4,stripes-8,right,right,5.037475999052731,0.6638035539135672
MND1999m,2019-05-15-12-10-12,0,13,0.5408264787218033,left,stripes-2,heavy poles sphere,left,right,0.9829578497638067,0.2558580350541888
MND1999m,2019-05-15-12-10-12,0,14,0.6248197850795505,left,heavy poles sphere,heavy poles sphere,right,right,1.3486623222906928,0.23193607957455242
MND1999m,2019-05-15-12-10-12,0,15,0.5509724797731367,left,heavy poles sphere,stripes-4,left,right,2.2300216016310515,0.231805773164524
MND1999m,2019-05-15-12-10-12,0,16,0.6251899061359616,right,stripes-8,heavy poles sphere,right,right,0.6167309076226957,0.27195663004658854
MND1999m,2019-05-15-12-10-12,0,17,0.571169030382631,right,stripes-2,stripes-4,right,right,0.9806530745781856,0.28784374924271106
MND1999m,2019-05-15-12-10-12,0,18,0.6344354467554548,right,stripes-2,stripes-2,left,right,1.390394893730445,0.3436795793377314
MND1999m,2019-05-15-12-10-12,0,19,0.6562456971227889,right,stripes-8,stripes-8,right,right,0.6681462715887392,0.2638483992213878
MND1999m,2019-05-15-12-10-12,0,20,0.5174701734862702,right,stripes-8,stripes-2,right,right,0.4641131793578097,0.3438366312157086
MND1999m,2019-05-15-12-10-12,0,21,0.6101121758584684,left,heavy poles sphere,heavy poles sphere,left,right,3.3673446539232827,0.5758911994344089
MND1999m,2019-05-15-12-10-12,0,22,0.6981460079211337,left,stripes-4,stripes-2,right,right,1.329357070039805,0.35183103830240725
MND1999m,2019-05-15-12-10-12,0,23,0.600158526503399,right,heavy poles sphere,stripes-2,right,right,0.7728155949716893,0.2797112608996031
MND1999m,2019-05-15-12-10-12,0,24,0.6921075974181934,right,heavy poles sphere,stripes-4,right,right,1.7577535423752124,0.727864548508478
MND1999m,2019-05-15-12-10-12,0,25,0.5666148028798105,right,stripes-4,stripes-8,left,right,2.824330787952931,0.4879844428451179
MND1999m,2019-05-15-12-10-12,0,26,0.6706568588596605,left,stripes-8,stripes-4,right,right,0.6290515497139495,0.3117274524820459
MND1999m,2019-05-15-12-10-12,0,27,0.5290209781445243,right,stripes-2,heavy poles sphere,right,right,0.51435391967334,0.2797025530726387
MND1999m,2019-05-15-12-10-12,0,28,0.5867129169007288,left,stripes-4,heavy poles sphere,left,left,1.5544027705818735,0.2317336225987674
MND1999m,2019-05-15-12-10-12,0,29,0.5749904542423049,right,stripes-4,stripes-4,right,right,1.097527350351811,0.279841567308722
MND1999m,2019-05-15-12-10-12,0,30,0.5299230427689362,right,heavy poles sphere,stripes-8,right,right,0.5478299162368785,0.27194201333622914
MND1999m,2019-05-15-12-10-12,0,31,0.6532175758485856,right,stripes-2,stripes-8,right,right,4.143035697737105,0.5517151620060758
MND1999m,2019-05-15-12-10-12,0,32,0.5304677875887065,left,stripes-2,stripes-4,right,right,2.249158917218665,0.263821653753439
MND1999m,2019-05-15-12-10-12,0,33,0.6982854923123222,left,stripes-2,stripes-2,right,left,0.9897508877320433,0.3358804763674925
MND1999m,2019-05-15-12-10-12,0,34,0.5696541540135526,left,stripes-8,heavy poles sphere,right,right,0.6493802826189494,0.3038145257751239
MND1999m,2019-05-15-12-10-12,0,35,0.686086905297568,left,heavy poles sphere,heavy poles sphere,right,right,0.6399214056427809,0.28779461221893143
MND1999m,2019-05-15-12-10-12,0,36,0.662840293582875,right,stripes-2,stripes-8,right,right,0.14243796761820704,0.303944521190715
MND1999m,2019-05-15-12-10-12,0,37,0.6607185260960496,left,heavy poles sphere,stripes-4,right,right,0.48138422104420897,0.2799585009852308
MND1999m,2019-05-15-12-10-12,0,38,0.5807972888830711,right,stripes-4,heavy poles sphere,left,right,0.8907329440107787,0.7758257041368779
MND1999m,2019-05-15-12-10-12,0,39,0.5527529710513543,left,stripes-8,stripes-8,right,left,0.9034196258244265,0.255799879209917
MND1999m,2019-05-15-12-10-12,0,40,0.5810048107656531,right,stripes-4,stripes-2,left,right,2.0878709922999406,0.22383748955871852
MND1999m,2019-05-15-12-10-12,0,41,0.6229210243182037,left,stripes-8,stripes-4,right,right,1.3271841562327609,0.30382230061968585
MND1999m,2019-05-15-12-10-12,0,42,0.6750530219960414,right,heavy poles sphere,stripes-2,right,right,0.8651602333447954,0.33598030538360035
MND1999m,2019-05-15-12-10-12,0,43,0.6546660302651357,right,stripes-4,stripes-4,right,right,0.40485081937549694,0.32178281560118194
MND1999m,2019-05-15-12-10-12,0,44,0.6503793301939838,right,stripes-4,stripes-8,right,right,1.1002423263835226,0.2877812394845023
MND1999m,2019-05-15-12-10-12,0,45,0.5523207750381446,right,heavy poles sphere,stripes-8,right,right,0.3099096936157366,0.24770035621259012
MND1999m,2019-05-15-12-10-12,0,46,0.5084549861792789,left,stripes-2,heavy poles sphere,right,right,1.0346879394728603,0.30382447757710906
MND1999m,2019-05-15-12-10-12,0,47,0.5083416781165476,right,stripes-8,stripes-2,right,right,0.5592035821509853,0.3437175205826861
MND1999m,2019-05-15-12-10-12,1,0,0.6055427354632595,right,stripes-2,stripes-2,right,right,4.6926724880568145,0.27983161550764635
MND1999m,2019-05-15-12-10-12,1,1,0.6571681158981695,left,stripes-2,stripes-4,right,right,0.5349252277565029,0.31986958163270174
MND1999m,2019-05-15-12-10-12,1,2,0.5713525020582993,left,stripes-8,stripes-4,right,right,0.7168317318182744,0.40783511605332023
MND1999m,2019-05-15-12-10-12,1,3,0.5397886775341666,left,stripes-2,stripes-8,right,right,0.7046289563859318,0.2799690747742716
MND1999m,2019-05-15-12-10-12,1,4,0.6030719219355205,left,stripes-4,stripes-4,right,left,0.6318343223974807,0.3598689845239278
MND1999m,2019-05-15-12-10-12,1,5,0.5829107636703574,right,heavy poles sphere,stripes-8,right,right,0.8163705901852154,0.2558455953012526
MND1999m,2019-05-15-12-10-12,1,6,0.5112526571708351,right,heavy poles sphere,stripes-4,right,right,0.7370830272639068,0.2716960172265317
MND1999m,2019-05-15-12-10-12,1,7,0.5212786156006235,right,stripes-4,stripes-8,right,right,0.3862163807907564,0.35992993931267847
MND1999m,2019-05-15-12-10-12,1,8,0.5172040162408645,right,stripes-4,heavy poles sphere,right,right,0.4964997645774929,0.3198350613192815
MND1999m,2019-05-15-12-10-12,1,9,0.5850094042095768,right,stripes-4,stripes-2,right,right,0.6790699294479055,0.30382634354009497
MND1999m,2019-05-15-12-10-12,1,10,0.5024617840249895,left,heavy poles sphere,heavy poles sphere,right,right,0.4364058071250838,0.2718312995375527
MND1999m,2019-05-15-12-10-12,1,11,0.6559958524946494,left,stripes-8,stripes-2,right,left,2.9322982007770406,0.2479037461689586
MND1999m,2019-05-15-12-10-12,1,12,0.6436363428253498,right,heavy poles sphere,stripes-2,right,right,0.3451238346287937,2.2157727978683397
MND1999m,2019-05-15-12-10-12,1,13,0.6985073073667296,right,stripes-8,heavy poles sphere,right,right,0.43698207866964367,0.2958568159583592
MND1999m,2019-05-15-12-10-12,1,14,0.5563162068928941,left,stripes-2,heavy poles sphere,right,right,0.425073814382813,0.30382447757619957
MND1999m,2019-05-15-12-10-12,1,15,0.6727440375535494,right,stripes-8,stripes-8,right,right,0.19980886319990532,0.3518154886114644
MND1999m,2019-05-15-12-10-12,1,16,0.6641622483526323,right,stripes-8,stripes-8,right,right,0.3019600696379712,0.2959410952826147
MND1999m,2019-05-15-12-10-12,1,17,0.6134028705438026,left,stripes-4,heavy poles sphere,right,right,0.4456059372450909,0.2558487052392593
MND1999m,2019-05-15-12-10-12,1,18,0.6470428184521797,left,stripes-4,stripes-4,right,right,1.0301670223398105,0.2799752946511944
MND1999m,2019-05-15-12-10-12,1,19,0.6118223060788108,left,stripes-4,stripes-8,right,right,0.3038017750286599,0.27177096673676715
MND1999m,2019-05-15-12-10-12,1,20,0.632862525655533,right,stripes-2,stripes-4,right,right,1.0466111314635782,0.3438450280482357
MND1999m,2019-05-15-12-10-12,1,21,0.6623721722161247,right,stripes-2,stripes-2,left,right,2.114848773036101,0.28784530421035015
MND1999m,2019-05-15-12-10-12,1,22,0.6520548439583713,left,stripes-2,stripes-8,right,right,2.2860079527335984,0.28783597439633013
MND1999m,2019-05-15-12-10-12,1,23,0.6529655155246271,left,heavy poles sphere,heavy poles sphere,right,right,0.8926483549366822,0.3678288712972062
MND1999m,2019-05-15-12-10-12,1,24,0.6914653847095868,left,heavy poles sphere,stripes-2,right,right,0.654384795138867,0.40774181790857256
MND1999m,2019-05-15-12-10-12,1,25,0.6895620021244183,left,stripes-8,stripes-2,right,left,0.8066781568513761,0.7118315732122937
MND1999m,2019-05-15-12-10-12,1,26,0.608196777768138,left,heavy poles sphere,stripes-8,right,right,0.7055566509452547,0.29570567296286754
MND1999m,2019-05-15-12-10-12,1,27,0.6994745239799096,right,stripes-2,heavy poles sphere,right,right,0.8932165406413333,0.2718384523959685
MND1999m,2019-05-15-12-10-12,1,28,0.6350386441626316,left,stripes-8,stripes-4,right,right,0.219581539158753,0.3280030029563932
MND1999m,2019-05-15-12-10-12,1,29,0.6610265766502278,right,stripes-8,heavy poles sphere,left,right,1.4192034950729067,0.2796683437518368
MND1999m,2019-05-15-12-10-12,1,30,0.5658265963764795,left,stripes-4,stripes-2,right,left,1.1110515385180406,0.3359700425871779
MND1999m,2019-05-15-12-10-12,1,31,0.5665607715640955,left,heavy poles sphere,stripes-4,right,right,0.5819667746645791,0.38384132100236457
MND1999m,2019-05-15-12-10-12,1,32,0.6636222685408752,left,stripes-8,stripes-2,right,right,0.7711079279170008,0.4078456898432705
MND1999m,2019-05-15-12-10-12,1,33,0.5443669921107537,left,stripes-2,stripes-4,right,left,0.47689160434856603,0.3998550146825437
MND1999m,2019-05-15-12-10-12,1,34,0.574373704752426,right,stripes-4,heavy poles sphere,right,right,0.394928872604396,0.40794334190195514
MND1999m,2019-05-15-12-10-12,1,35,0.6277746381798358,right,heavy poles sphere,stripes-2,right,left,3.961387629536148,0.5039508654645033
MND1999m,2019-05-15-12-10-12,1,36,0.5237143186091783,right,heavy poles sphere,stripes-8,right,right,0.29530915584473405,0.36784815291503037
MND1999m,2019-05-15-12-10-12,1,37,0.6699537294684895,right,heavy poles sphere,heavy poles sphere,right,right,0.5788450187183116,0.4158553356273842
MND1999m,2019-05-15-12-10-12,1,38,0.6667868869392156,left,stripes-2,heavy poles sphere,left,left,0.6399229606113295,0.423975384217556
MND1999m,2019-05-15-12-10-12,1,39,0.6308223747635553,left,stripes-8,stripes-4,left,left,0.7717097009544887,0.4078204993447798
MND1999m,2019-05-15-12-10-12,1,40,0.5853331973308965,right,stripes-4,stripes-2,right,right,0.5794200462878507,0.3919604366101339
MND1999m,2019-05-15-12-10-12,1,41,0.5731789839437286,left,stripes-2,stripes-2,right,left,0.5174937132596824,0.4637104423645724
MND1999m,2019-05-15-12-10-12,1,42,0.5822325575828547,left,stripes-4,stripes-4,left,right,0.573286626207846,0.39992623226680735
MND1999m,2019-05-15-12-10-12,1,43,0.6592985790445072,left,stripes-2,stripes-8,left,left,1.09836796664149,0.38386464553877886
MND1999m,2019-05-15-12-10-12,1,44,0.5286797971668351,left,heavy poles sphere,stripes-4,left,left,0.49729248782023205,0.40784817779422156
MND1999m,2019-05-15-12-10-12,1,45,0.5292415604255705,left,stripes-8,heavy poles sphere,left,left,1.007915414657873,0.407965733457786
MND1999m,2019-05-15-12-10-12,1,46,0.5249663069600372,right,stripes-4,stripes-8,left,left,0.6090515372734444,0.3996960968406711
MND1999m,2019-05-15-12-10-12,1,47,0.6585446936886453,left,stripes-8,stripes-8,left,left,0.5334719536440389,0.3917315451599279
MND1999m,2019-05-15-12-10-12,2,0,0.6702481018736697,right,stripes-4,heavy poles sphere,right,right,0.6782663214216882,0.4078419579172987
MND1999m,2019-05-15-12-10-12,2,1,0.5518783126823528,left,stripes-2,heavy poles sphere,left,left,0.39748990669522755,0.4558733981484693
MND1999m,2019-05-15-12-10-12,2,2,0.5771951568616145,right,stripes-2,stripes-2,right,left,2.7227331505100665,0.29581047787905845
MND1999m,2019-05-15-12-10-12,2,3,0.5787021884338172,right,stripes-2,stripes-8,right,right,0.8323227070895882,0.3518338372468861
MND1999m,2019-05-15-12-10-12,2,4,0.6150335905150955,left,stripes-8,heavy poles sphere,left,left,0.3680795323152779,0.39198096220206935
MND1999m,2019-05-15-12-10-12,2,5,0.5796951703882742,right,stripes-8,stripes-4,right,right,0.5134769171054359,0.4478273660879495
MND1999m,2019-05-15-12-10-12,2,6,0.6072384451591006,left,heavy poles sphere,stripes-8,left,left,0.45073018238508666,0.4238453888019649
MND1999m,2019-05-15-12-10-12,2,7,0.5205767953508562,right,stripes-8,stripes-8,left,left,0.7695430070243674,0.33569916697160807
MND1999m,2019-05-15-12-10-12,2,8,0.5376762529313996,right,stripes-4,stripes-2,right,right,0.6305608027123526,0.4158739952572432
MND1999m,2019-05-15-12-10-12,2,9,0.514236305362581,right,heavy poles sphere,heavy poles sphere,right,right,0.32120436710010836,0.4158099305295764
MND1999m,2019-05-15-12-10-12,2,10,0.5739026230957114,right,stripes-2,stripes-4,right,right,0.5079552218667232,0.39981582946074923
MND1999m,2019-05-15-12-10-12,2,11,0.532899067976957,left,heavy poles sphere,stripes-4,left,left,0.13796058961997915,0.4798199221395407
MND1999m,2019-05-15-12-10-12,2,12,0.653969145166193,left,heavy poles sphere,stripes-2,left,left,0.5347731517786087,0.39995328872828395
MND1999m,2019-05-15-12-10-12,2,13,0.689678355803297,right,stripes-8,stripes-2,right,right,0.9567130814566553,0.5357020903138618
MND1999m,2019-05-15-12-10-12,2,14,0.5546441207804014,left,stripes-4,stripes-4,left,left,0.5607504654026343,0.39181675746658584
MND1999m,2019-05-15-12-10-12,2,15,0.5351286459363738,left,stripes-4,stripes-8,left,right,0.5248574248844307,0.4237020206510351
MND1999m,2019-05-15-12-10-12,2,16,0.646464419444601,right,stripes-2,heavy poles sphere,right,right,0.5165968070887175,0.39996572848122014
MND1999m,2019-05-15-12-10-12,2,17,0.5984120272216289,left,heavy poles sphere,heavy poles sphere,left,left,0.46459148785015714,0.43981492135844746
MND1999m,2019-05-15-12-10-12,2,18,0.5966520734611109,left,heavy poles sphere,stripes-2,left,right,0.38855692026572797,0.415842895874448
MND1999m,2019-05-15-12-10-12,2,19,0.6082196227410731,left,heavy poles sphere,stripes-4,left,left,0.4119137999778104,0.43195983950226946
MND1999m,2019-05-15-12-10-12,2,20,0.6062012536440422,left,stripes-8,stripes-4,left,left,0.5846764638017703,0.3757312242150874
MND1999m,2019-05-15-12-10-12,2,21,0.6645625350531867,left,stripes-4,stripes-2,left,left,0.5824062089295694,0.45585473851951974
MND1999m,2019-05-15-12-10-12,2,22,0.5226781303625593,left,stripes-4,stripes-8,left,left,0.47893638870209543,0.39187118138488586
MND1999m,2019-05-15-12-10-12,2,23,0.5603043552381344,left,stripes-2,stripes-2,left,right,1.068265631016402,0.44782301217401255
MND1999m,2019-05-15-12-10-12,2,24,0.5167154924889706,right,stripes-8,stripes-2,right,right,0.6017833007508671,0.4238425898565765
MND1999m,2019-05-15-12-10-12,2,25,0.6898131903001674,right,stripes-2,stripes-8,right,right,0.3395660641053837,3.567694957358981
MND1999m,2019-05-15-12-10-12,2,26,0.5425032326171768,right,stripes-8,heavy poles sphere,right,right,0.5270499313019172,0.4718258260463699
MND1999m,2019-05-15-12-10-12,2,27,0.639180596363404,left,stripes-4,heavy poles sphere,right,left,1.7895405315139215,0.4239576575700994
MND1999m,2019-05-15-12-10-12,2,28,0.6711041340068873,right,stripes-2,stripes-4,right,right,0.2797588429530151,0.5197869816747698
MND1999m,2019-05-15-12-10-12,2,29,0.5109471744838391,left,heavy poles sphere,stripes-8,left,left,0.46709467709206365,0.34396911458225077
MND1999m,2019-05-15-12-10-12,2,30,0.651849396595406,right,stripes-8,stripes-8,right,right,0.5590850935059279,0.42398378105008305
MND1999m,2019-05-15-12-10-12,2,31,0.6885772003589972,right,stripes-4,stripes-4,right,right,0.4750928161047341,0.38381426453997847
MND1999m,2019-05-15-12-10-12,2,32,0.6589052707153993,left,stripes-8,heavy poles sphere,left,left,0.5983657896840668,0.4798087263625348
MND1999m,2019-05-15-12-10-12,2,33,0.503397381730648,left,heavy poles sphere,heavy poles sphere,left,left,0.7356051846400078,0.43167465817168704
MND1999m,2019-05-15-12-10-12,2,34,0.603249359027493,right,stripes-2,stripes-4,right,right,1.9911295233277997,0.3918229773435087
MND1999m,2019-05-15-12-10-12,2,35,0.6306516223011327,left,stripes-2,heavy poles sphere,left,left,0.4531997842941564,0.3998276472257203
MND1999m,2019-05-15-12-10-12,2,36,0.6799680041658017,right,stripes-4,stripes-4,right,right,0.42257031414737867,0.3997088475871351
MND1999m,2019-05-15-12-10-12,2,37,0.6317653785486953,right,stripes-2,stripes-8,right,right,2.0590216507671357,0.35181113469843694
MND1999m,2019-05-15-12-10-12,2,38,0.6434430576400367,left,stripes-4,heavy poles sphere,right,left,3.767603960568522,0.4718108983433922
MND1999m,2019-05-15-12-10-12,2,39,0.5420407300194082,right,heavy poles sphere,stripes-4,right,right,0.17366299092645932,0.5038168271294126
MND1999m,2019-05-15-12-10-12,2,40,0.6661961412420314,right,heavy poles sphere,stripes-8,right,right,0.11175438454665709,0.3919688334435705
MND1999m,2019-05-15-12-10-12,2,41,0.6131899165872208,right,stripes-8,stripes-4,right,right,0.48206934042536886,0.41586528742936935
MND1999m,2019-05-15-12-10-12,2,42,0.5592754753322923,left,stripes-8,stripes-2,left,left,0.9106290845147669,0.4878152622077323
MND1999m,2019-05-15-12-10-12,2,43,0.5985096480769526,right,heavy poles sphere,stripes-2,right,right,0.630877394419258,0.43983482496332726
MND1999m,2019-05-15-12-10-12,2,44,0.6082376119157342,left,stripes-8,stripes-8,right,right,0.4101010170115842,0.4077212923157276
MND1999m,2019-05-15-12-10-12,2,45,0.6403421344075714,right,stripes-4,stripes-2,right,left,1.4465955195746574,0.42382517420264776
MND1999m,2019-05-15-12-10-12,2,46,0.5864543569469906,left,stripes-2,stripes-2,left,right,0.8504312551276598,0.34395822979786317
MND1999m,2019-05-15-12-10-12,2,47,0.5258621568610039,left,stripes-4,stripes-8,left,left,0.4123355075953441,0.2878135828414088
MND1999m,2019-05-15-12-10-12,3,0,0.5512084876414217,left,stripes-2,stripes-8,left,left,1.6547726044300362,0.41583854196142056
MND1999m,2019-05-15-12-10-12,3,1,0.6387919285061873,right,stripes-8,stripes-8,left,left,0.4485473167769669,0.23973580453184695
MND1999m,2019-05-15-12-10-12,3,2,0.5548215135773684,left,stripes-8,stripes-4,left,left,0.5899263504434202,0.359990272113464
MND1999m,2019-05-15-12-10-12,3,3,0.6425144628751073,left,heavy poles sphere,stripes-4,left,left,0.6618138154653934,0.27983503643918084
MND1999m,2019-05-15-12-10-12,3,4,0.6200541768729385,left,stripes-4,stripes-2,left,right,0.48585600115438865,0.25584652828274557
MND1999m,2019-05-15-12-10-12,3,5,0.5324615372850333,right,stripes-8,stripes-2,right,left,2.801665869485987,0.2959466931715724
MND1999m,2019-05-15-12-10-12,3,6,0.662552575993485,left,stripes-8,heavy poles sphere,left,left,2.3211580290208076,0.2878602319142374
MND1999m,2019-05-15-12-10-12,3,7,0.5609025357350992,left,stripes-2,stripes-4,right,left,0.4639125883459201,0.399716622433516
MND1999m,2019-05-15-12-10-12,3,8,0.5370378337375887,left,heavy poles sphere,heavy poles sphere,left,left,0.4731867349937602,0.42397507322311867
MND1999m,2019-05-15-12-10-12,3,9,0.5395462533482185,right,stripes-4,stripes-4,right,right,0.48651219811108604,0.39194146598765656
MND1999m,2019-05-15-12-10-12,3,10,0.5495596722714846,right,heavy poles sphere,stripes-2,right,right,0.453974780889439,0.35177879134062096
MND1999m,2019-05-15-12-10-12,3,11,0.562025449878863,left,stripes-4,stripes-8,right,left,0.45394337051311595,0.5040217720552391
MND1999m,2019-05-15-12-10-12,3,12,0.561192684251954,right,heavy poles sphere,stripes-8,left,left,0.34539315527490544,0.3676966989251014
MND1999m,2019-05-15-12-10-12,3,13,0.6265578690732089,right,stripes-2,stripes-2,right,right,0.5553541006711384,0.3758413160267082
MND1999m,2019-05-15-12-10-12,3,14,0.6166217070818649,left,stripes-4,heavy poles sphere,left,left,0.8533390473266991,0.48772787294547015
MND1999m,2019-05-15-12-10-12,3,15,0.6346130401562635,right,stripes-2,heavy poles sphere,right,right,0.4294921035552761,0.7677463957370492
MND1999m,2019-05-15-12-10-12,3,16,0.6197618036424608,left,stripes-4,heavy poles sphere,left,left,0.7005089102840429,0.35982513439648756
MND1999m,2019-05-15-12-10-12,3,17,0.6169313839595659,left,heavy poles sphere,stripes-8,left,left,0.5771339307311791,0.45571230335099244
MND1999m,2019-05-15-12-10-12,3,18,0.5112861909147325,right,stripes-2,stripes-2,right,right,1.1461969498968756,0.3758459809332635
MND1999m,2019-05-15-12-10-12,3,19,0.681585231616695,left,heavy poles sphere,stripes-2,left,left,0.5535851678341714,0.3838655785202718
MND1999m,2019-05-15-12-10-12,3,20,0.690098791490533,left,stripes-2,heavy poles sphere,left,left,0.4886841789357277,0.3518627596722581
MND1999m,2019-05-15-12-10-12,3,21,0.6638204407107485,left,heavy poles sphere,heavy poles sphere,left,right,2.109392386498257,0.40785719661380426
MND1999m,2019-05-15-12-10-12,3,22,0.5486599556077467,right,stripes-8,stripes-8,right,right,1.5921452913353278,0.4077495927531345
MND1999m,2019-05-15-12-10-12,3,23,0.5538734064223969,right,stripes-4,stripes-2,right,right,3.288491238370625,0.3198052059115071
MND1999m,2019-05-15-12-10-12,3,24,0.6970512024223144,right,stripes-8,stripes-2,right,right,0.4407821121330926,0.3838257713114217
MND1999m,2019-05-15-12-10-12,3,25,0.6434305217630504,left,stripes-8,stripes-4,right,right,0.3567907677133917,0.36781736452576297
MND1999m,2019-05-15-12-10-12,3,26,0.5532280201991573,right,stripes-4,stripes-8,right,right,0.6329069400762819,0.37591408857952047
MND1999m,2019-05-15-12-10-12,3,27,0.6549802326264714,right,stripes-2,stripes-8,right,left,0.38871024021773337,0.3679601106887276
MND1999m,2019-05-15-12-10-12,3,28,0.5135690192054068,right,stripes-4,stripes-4,right,right,1.408763121606171,0.29594047329555906
MND1999m,2019-05-15-12-10-12,3,29,0.5429595335269424,right,stripes-8,heavy poles sphere,right,right,0.47015516725514317,0.36799400901509216
MND1999m,2019-05-15-12-10-12,3,30,0.5323340365926844,left,stripes-2,stripes-4,right,right,0.718224362136425,0.43182766712925513
MND1999m,2019-05-15-12-10-12,3,31,0.6802807892437165,left,heavy poles sphere,stripes-4,right,right,1.6206531616571738,0.3276590437935738
MND1999m,2019-05-15-12-10-12,3,32,0.5243777891237194,right,stripes-8,heavy poles sphere,right,right,1.0004835953877773,0.49569086965675524
MND1999m,2019-05-15-12-10-12,3,33,0.612132040790114,left,stripes-8,stripes-2,right,right,3.4583448660214344,0.43991754931903415
MND1999m,2019-05-15-12-10-12,3,34,0.629101864098133,right,stripes-4,heavy poles sphere,right,right,0.34654725333348324,0.3198611847992652
MND1999m,2019-05-15-12-10-12,3,35,0.6276478026402565,right,stripes-8,stripes-4,right,right,0.39812651104148244,0.30375201601782464
MND1999m,2019-05-15-12-10-12,3,36,0.5399409848962591,left,stripes-4,stripes-8,right,right,0.2834410097593718,2.9677751315666683
MND1999m,2019-05-15-12-10-12,3,37,0.6682389161969362,right,stripes-4,stripes-4,right,right,0.627404215459137,0.3599625936631128
MND1999m,2019-05-15-12-10-12,3,38,0.6620825799802971,left,stripes-2,stripes-4,left,right,0.3118888582730506,0.3198761125031524
MND1999m,2019-05-15-12-10-12,3,39,0.596447860715572,left,heavy poles sphere,stripes-4,right,right,0.39951323247623804,0.35183508122281637
MND1999m,2019-05-15-12-10-12,3,40,0.5376965087640188,right,stripes-4,stripes-2,right,right,0.27491729119356023,0.327951377982572
MND1999m,2019-05-15-12-10-12,3,41,0.6590230991094307,left,stripes-2,stripes-2,right,left,0.6070288334813085,0.37584349298322195
MND1999m,2019-05-15-12-10-12,3,42,0.6794123142781683,right,heavy poles sphere,stripes-2,right,right,0.3001877158685602,0.31987331355867354
MND1999m,2019-05-15-12-10-12,3,43,0.6950823005719575,right,stripes-2,heavy poles sphere,right,right,0.287696649166719,0.311964740764779
MND1999m,2019-05-15-12-10-12,3,44,0.5366368151269032,right,heavy poles sphere,stripes-8,right,left,0.49064188502052275,0.2478334615670974
MND1999m,2019-05-15-12-10-12,3,45,0.5832406029764913,right,stripes-8,stripes-8,right,right,0.23674622095859377,0.32793800524814287
MND1999m,2019-05-15-12-10-12,3,46,0.6356383905267884,right,stripes-2,stripes-8,right,right,0.36365004736489936,0.3917750842956593
MND1999m,2019-05-15-12-10-12,3,47,0.5564060597904378,left,heavy poles sphere,heavy poles sphere,right,left,0.4491948059057904,0.4076864610087796
MND1999m,2019-05-15-12-10-12,4,0,0.6763575107551377,left,heavy poles sphere,stripes-4,right,right,0.3682294313348393,0.3757452189365722
MND1999m,2019-05-15-12-10-12,4,1,0.6835206393566614,left,stripes-2,stripes-8,right,right,0.5500995491211143,0.3919237393402
MND1999m,2019-05-15-12-10-12,4,2,0.5568622957560689,left,stripes-4,heavy poles sphere,right,right,0.386059639906307,0.4318419728451772
MND1999m,2019-05-15-12-10-12,4,3,0.6682782976899028,right,stripes-4,stripes-4,right,right,0.24551220370904048,0.5197114101765692
MND1999m,2019-05-15-12-10-12,4,4,0.5624711339017241,right,stripes-4,stripes-8,right,right,0.03147475134483102,0.3439753344582641
MND1999m,2019-05-15-12-10-12,4,5,0.6076565728195461,right,heavy poles sphere,stripes-8,right,left,1.6324622189158617,0.3438328992897368
MND1999m,2019-05-15-12-10-12,4,6,0.6286176604638822,left,heavy poles sphere,heavy poles sphere,right,right,0.5683741678576553,0.39965411267530726
MND1999m,2019-05-15-12-10-12,4,7,0.5141290408210399,right,stripes-8,stripes-4,right,right,0.1315292374620185,0.3518537408517659
MND1999m,2019-05-15-12-10-12,4,8,0.6946991101137878,right,stripes-8,heavy poles sphere,right,right,0.37243717769342766,0.37584504795268003
MND1999m,2019-05-15-12-10-12,4,9,0.5831937307758568,left,stripes-8,stripes-8,right,right,0.45381679602905933,0.4478709052227714
MND1999m,2019-05-15-12-10-12,4,10,0.6037355852830796,right,stripes-8,stripes-2,right,right,0.0964590865860373,0.35982482340205024
MND1999m,2019-05-15-12-10-12,4,11,0.6881972554081763,left,stripes-2,stripes-4,right,left,0.16201098554483906,0.3680052047930076
MND1999m,2019-05-15-12-10-12,4,12,0.5880987141796328,right,stripes-4,stripes-2,right,right,0.5723881650683325,0.3198344393313164
MND1999m,2019-05-15-12-10-12,4,13,0.6320020929181213,left,stripes-2,stripes-2,right,left,0.4383386337040065,0.3838313691994699
MND1999m,2019-05-15-12-10-12,4,14,0.5232714928494306,left,stripes-2,heavy poles sphere,left,right,0.29632455065984686,0.29586085887785885
MND1999m,2019-05-15-12-10-12,4,15,0.6729074647691442,left,heavy poles sphere,stripes-2,right,left,0.7258269170124549,0.2958278935329872
MND1999m,2019-05-15-12-10-12,4,16,0.5584354510769043,left,stripes-8,stripes-2,left,right,0.6216928139901938,0.23196935591295187
MND1999m,2019-05-15-12-10-12,4,17,0.6462499326231724,left,stripes-8,stripes-8,left,left,0.3682760804076679,0.27986084892654617
MND1999m,2019-05-15-12-10-12,4,18,0.6177430862495186,left,heavy poles sphere,stripes-8,left,left,0.18193915841311536,2.895605284157682
MND1999m,2019-05-15-12-10-12,4,19,0.5126498509569417,right,heavy poles sphere,heavy poles sphere,right,right,0.5173767795840831,0.37581114962631545
MND1999m,2019-05-15-12-10-12,4,20,0.6824657382134515,right,stripes-2,stripes-8,right,right,0.47729247538063646,0.35179278606301523
MND1999m,2019-05-15-12-10-12,4,21,0.6267125294783107,left,stripes-2,stripes-2,left,right,1.0018298876257177,0.3757990208678166
MND1999m,2019-05-15-12-10-12,4,22,0.5826759075175465,right,stripes-4,heavy poles sphere,right,right,0.39550296719244216,0.4238600055105053
MND1999m,2019-05-15-12-10-12,4,23,0.641947343454137,right,stripes-4,stripes-2,right,left,0.5601434054697165,0.9679343604002497
MND1999m,2019-05-15-12-10-12,4,24,0.6049583226770141,right,heavy poles sphere,stripes-2,right,right,0.7069209808250889,0.3439557418478216
MND1999m,2019-05-15-12-10-12,4,25,0.6075716128628028,left,stripes-2,stripes-4,right,left,0.28741644373621966,0.37585095683516556
MND1999m,2019-05-15-12-10-12,4,26,0.5563565748754287,right,heavy poles sphere,stripes-4,right,right,0.2549614398767517,0.407958891592898
MND1999m,2019-05-15-12-10-12,4,27,0.6416008811340138,right,stripes-4,stripes-8,right,left,0.9697928594578116,0.28784001731582975
MND1999m,2019-05-15-12-10-12,4,28,0.5613816751830876,left,stripes-8,stripes-4,right,left,0.36737824125521,0.3758099056503852
MND1999m,2019-05-15-12-10-12,4,29,0.6197445057260487,left,stripes-2,heavy poles sphere,right,right,0.4486210223112721,0.3279473350630724
MND1999m,2019-05-15-12-10-12,4,30,0.5104503582585554,right,stripes-4,stripes-4,right,right,0.16425449494909117,0.36785717173552257
MND1999m,2019-05-15-12-10-12,4,31,0.5325101682407247,left,stripes-8,heavy poles sphere,right,right,0.4905305492338812,0.3278857582863566
MND1999m,2019-05-15-12-10-12,4,32,0.5180745633055432,right,stripes-2,heavy poles sphere,left,left,0.5660553979505494,0.2639479172430583
MND1999m,2019-05-15-12-10-12,4,33,0.5890596532364427,right,stripes-8,stripes-8,right,right,0.4762021310543787,0.3036863963225187
MND1999m,2019-05-15-12-10-12,4,34,0.5255992300804532,left,stripes-4,stripes-4,right,left,0.19953394466392638,0.4238460107890205
MND1999m,2019-05-15-12-10-12,4,35,0.5326039124753308,right,stripes-2,stripes-4,right,right,0.5845340286323335,0.36770198582053126
MND1999m,2019-05-15-12-10-12,4,36,0.5936714233305076,right,heavy poles sphere,stripes-2,right,right,0.4583697455263973,0.3997828641167871
MND1999m,2019-05-15-12-10-12,4,37,0.6870731920252745,right,stripes-8,stripes-4,right,right,1.1470024238860788,0.3518829742706657
MND1999m,2019-05-15-12-10-12,4,38,0.6228437429201714,right,stripes-4,stripes-8,right,right,0.18032136857164005,0.39197536431402114
MND1999m,2019-05-15-12-10-12,4,39,0.5434614309472737,left,heavy poles sphere,stripes-4,right,right,1.711867648495172,0.31198060144924966
MND1999m,2019-05-15-12-10-12,4,40,0.5791770431508625,left,stripes-8,stripes-2,left,left,0.565607566853032,0.3198132917514158
MND1999m,2019-05-15-12-10-12,4,41,0.655628219202379,right,stripes-4,heavy poles sphere,right,right,0.5595764637391767,0.33591748463277327
MND1999m,2019-05-15-12-10-12,4,42,0.629281651534521,right,stripes-8,heavy poles sphere,right,right,0.3623034441325217,0.35968238823352294
MND1999m,2019-05-15-12-10-12,4,43,0.6563008728003216,right,stripes-2,stripes-8,right,right,0.2824078882958929,4.055528568203954
MND1999m,2019-05-15-12-10-12,4,44,0.5637062789239276,left,heavy poles sphere,stripes-8,right,right,0.8753633185278886,0.34382419146277243
MND1999m,2019-05-15-12-10-12,4,45,0.6166135506440884,left,stripes-2,stripes-2,right,left,0.6803754814955028,0.41581863835745025
MND1999m,2019-05-15-12-10-12,4,46,0.6832930835052402,left,heavy poles sphere,heavy poles sphere,right,right,1.3227126871170185,0.2798431222790896
MND1999m,2019-05-15-12-10-12,4,47,0.6846687604735802,right,stripes-4,stripes-2,right,right,0.2700477499902263,0.36786245863004297
MND1999m,2019-05-15-12-10-12,5,0,0.5755813354647392,left,heavy poles sphere,heavy poles sphere,left,left,0.2575171870739723,0.2959498031104886
MND1999m,2019-05-15-12-10-12,5,1,0.6362584545765546,right,stripes-8,heavy poles sphere,right,right,0.3538764446439018,0.31984252517031564
MND1999m,2019-05-15-12-10-12,5,2,0.6483709198065379,left,heavy poles sphere,stripes-2,right,right,0.4366203928593677,0.31986958163179224
MND1999m,2019-05-15-12-10-12,5,3,0.6766571541641556,left,stripes-8,stripes-2,left,right,2.513758366510956,0.2958487301184505
MND1999m,2019-05-15-12-10-12,5,4,0.5565131633198739,right,stripes-4,heavy poles sphere,right,right,0.6015718249554993,0.303838161305066
MND1999m,2019-05-15-12-10-12,5,5,0.6738585236546588,left,stripes-2,heavy poles sphere,right,right,0.08216829865796171,0.3118403432372361
MND1999m,2019-05-15-12-10-12,5,6,0.5236560169551295,right,stripes-2,stripes-4,right,right,2.3486402417292993,0.30371251980250236
MND1999m,2019-05-15-12-10-12,5,7,0.5388681837866831,right,stripes-8,stripes-8,right,right,0.9305314448965873,0.26375510107573064
MND1999m,2019-05-15-12-10-12,5,8,0.5828343157405003,right,stripes-4,stripes-4,right,right,0.8828632454451508,0.3437131666696587
MND1999m,2019-05-15-12-10-12,5,9,0.5695944643943165,right,stripes-2,stripes-2,right,right,2.209127792957588,0.3198468790833431
MND1999m,2019-05-15-12-10-12,5,10,0.5418907607236104,left,heavy poles sphere,stripes-4,left,left,1.2452767813883838,0.2636953902629102
MND1999m,2019-05-15-12-10-12,5,11,0.5312476830285855,right,stripes-4,stripes-2,right,right,0.4981446108813543,0.3356976120030595
MND1999m,2019-05-15-12-10-12,5,12,0.5828501727497969,right,stripes-2,stripes-8,right,right,0.5281511604107436,0.3437296493420945
MND1999m,2019-05-15-12-10-12,5,13,0.5303564210987508,right,stripes-4,stripes-8,right,right,1.4946282037799392,0.30385153403949516
MND1999m,2019-05-15-12-10-12,5,14,0.6402714026317801,right,heavy poles sphere,stripes-8,right,right,0.6199238811532268,0.34383569823421567
MND1999m,2019-05-15-12-10-12,5,15,0.6404232203481857,right,stripes-8,stripes-4,right,right,0.7064230797213895,0.3278142297094746
MND1999m,2019-05-15-12-10-12,5,16,0.540683295738513,right,stripes-4,stripes-4,right,right,2.2662508264656935,0.3357825133152801
MND1999m,2019-05-15-12-10-12,5,17,0.5569623161928128,left,heavy poles sphere,stripes-2,right,right,0.3541921033702238,0.36784379900109343
MND1999m,2019-05-15-12-10-12,5,18,0.5202936307090336,right,stripes-2,stripes-4,right,left,0.11172079721382033,0.3758475359018121
MND1999m,2019-05-15-12-10-12,5,19,0.6647149219617509,left,heavy poles sphere,stripes-4,left,left,0.32197158884901,0.30383878329212166
MND1999m,2019-05-15-12-10-12,5,20,0.5029354919983121,left,stripes-4,heavy poles sphere,right,left,5.7246398536090055,0.15983216285621893
MND1999m,2019-05-15-12-10-12,5,21,0.6942823998344458,right,stripes-8,stripes-2,right,right,1.4565479437396789,0.35181486662440875
MND1999m,2019-05-15-12-10-12,5,22,0.5016726065346834,right,stripes-2,heavy poles sphere,right,right,0.44329680814553285,0.36778471017623815
MND1999m,2019-05-15-12-10-12,5,23,0.6129971427510251,right,stripes-8,heavy poles sphere,right,right,0.3779234196381367,0.31983195138127485
MND1999m,2019-05-15-12-10-12,5,24,0.5838318527805413,right,stripes-4,stripes-2,right,right,0.19715888487553457,0.7358577116201559
MND1999m,2019-05-15-12-10-12,5,25,0.5762226928370712,right,stripes-8,stripes-4,right,right,0.1759329348051324,1.247844346349666
MND1999m,2019-05-15-12-10-12,5,26,0.5820896479206674,left,heavy poles sphere,heavy poles sphere,left,right,0.688179871360262,0.28774982910908875
MND1999m,2019-05-15-12-10-12,5,27,0.6155522919540498,right,stripes-2,stripes-2,right,right,1.0393170824554545,0.2558564800856402
MND1999m,2019-05-15-12-10-12,5,28,0.5477162451610816,right,stripes-8,stripes-8,right,right,0.780397935250221,0.2878502801122522
MND1999m,2019-05-15-12-10-12,5,29,0.5351324850383211,left,stripes-2,stripes-8,left,right,0.15506462762641604,0.3838270152864425
MND1999m,2019-05-15-12-10-12,5,30,0.5018081303724936,right,stripes-4,stripes-8,right,right,0.3685665486336802,0.3279532439446484
MND1999m,2019-05-15-12-10-12,5,31,0.6466122768149385,right,heavy poles sphere,stripes-8,right,right,1.8345407149990933,0.35980709675459366
MND1999m,2019-05-15-12-10-12,5,32,0.5158881458442985,right,heavy poles sphere,heavy poles sphere,right,right,0.7743369767285913,0.35972250643681036
MND1999m,2019-05-15-12-10-12,5,33,0.553594367754291,right,stripes-4,stripes-2,right,right,0.4095617537313956,0.36768892407962994
MND1999m,2019-05-15-12-10-12,5,34,0.5387462166109512,right,stripes-4,heavy poles sphere,right,right,0.5888543547534937,0.4078522207128117
MND1999m,2019-05-15-12-10-12,5,35,0.6001062239708862,right,stripes-2,stripes-4,right,right,0.0035599462353275158,0.35190349986260117
MND1999m,2019-05-15-12-10-12,5,36,0.5378390542439601,right,heavy poles sphere,stripes-8,right,right,0.47134689556696685,0.35970415780138865
MND1999m,2019-05-15-12-10-12,5,37,0.6070945786093698,right,stripes-8,heavy poles sphere,right,right,0.38121715516535915,0.3358316503381502
MND1999m,2019-05-15-12-10-12,5,38,0.692492820708672,right,stripes-4,stripes-8,right,right,0.4998917741504556,0.2878014540838194
MND1999m,2019-05-15-12-10-12,5,39,0.6520102041516356,left,stripes-8,stripes-8,right,right,0.32921836679634,0.3118263485157513
MND1999m,2019-05-15-12-10-12,5,40,0.581647157726594,left,stripes-2,stripes-2,right,left,0.3115128667468525,0.3518011828946328
MND1999m,2019-05-15-12-10-12,5,41,0.573702355984365,right,stripes-2,stripes-8,right,right,0.02158265997968556,0.3279949171173939
MND1999m,2019-05-15-12-10-12,5,42,0.5822243065534061,right,stripes-8,stripes-4,right,right,0.26333836935918953,0.3198251095163869
MND1999m,2019-05-15-12-10-12,5,43,0.5648202612398413,left,heavy poles sphere,stripes-4,left,left,0.2896241888502118,0.31982293255896366
MND1999m,2019-05-15-12-10-12,5,44,0.590792580425621,left,stripes-8,stripes-2,left,right,0.24845576019652071,0.3198251095163869
MND1999m,2019-05-15-12-10-12,5,45,0.5271493552206378,left,heavy poles sphere,stripes-2,right,right,0.3808731960016303,0.31984470212591987
MND1999m,2019-05-15-12-10-12,5,46,0.519119343833582,right,stripes-2,heavy poles sphere,right,left,1.5482220794401655,0.24803405257807754
MND1999m,2019-05-15-12-10-12,5,47,0.5335778790802587,left,stripes-4,stripes-4,left,right,0.5648574497645313,0.343987463216763
MND1999m,2019-05-15-12-10-12,6,0,0.6643018721946121,left,stripes-8,stripes-2,right,right,0.6279223311612441,0.3439529429033428
MND1999m,2019-05-15-12-10-12,6,1,0.6124968575854831,left,stripes-8,stripes-4,left,left,0.4591229725538142,0.3838276372734981
MND1999m,2019-05-15-12-10-12,6,2,0.5208111039353834,right,stripes-4,stripes-4,right,right,1.1317068149310217,0.28783659638429526
MND1999m,2019-05-15-12-10-12,6,3,0.5140200484029894,right,stripes-2,stripes-2,right,right,0.452772478787665,0.3518627596713486
MND1999m,2019-05-15-12-10-12,6,4,0.5707069234398681,left,stripes-2,stripes-4,left,left,0.4448598630769993,0.3438105077348155
MND1999m,2019-05-15-12-10-12,6,5,0.5483780720045237,right,heavy poles sphere,heavy poles sphere,right,right,0.32028849030575657,0.36793274323281366
MND1999m,2019-05-15-12-10-12,6,6,0.5344711356156182,right,heavy poles sphere,stripes-8,right,right,0.1911635460510297,0.43985099664132576
MND1999m,2019-05-15-12-10-12,6,7,0.5025499203289896,left,stripes-4,heavy poles sphere,left,right,1.0500550770047994,0.37584877987865184
MND1999m,2019-05-15-12-10-12,6,8,0.5905519148334744,left,stripes-4,stripes-8,left,left,0.4403999007299717,0.4317023366202193
MND1999m,2019-05-15-12-10-12,6,9,0.5185349026363977,right,heavy poles sphere,stripes-2,right,right,0.5844401084996207,0.4077228472851857
MND1999m,2019-05-15-12-10-12,6,10,0.5164390458867011,left,stripes-8,stripes-8,left,left,0.1629819082463655,0.45582395013116184
MND1999m,2019-05-15-12-10-12,6,11,0.5147656499813199,left,stripes-2,heavy poles sphere,left,left,0.3019964559152868,0.4637129303155234
MND1999m,2019-05-15-12-10-12,6,12,0.6698808916313966,left,stripes-8,heavy poles sphere,left,left,0.7485944634390762,0.3518213974948594
MND1999m,2019-05-15-12-10-12,6,13,0.6112042742082493,left,heavy poles sphere,stripes-4,left,left,0.007694920039284625,0.3518173545744503
MND1999m,2019-05-15-12-10-12,6,14,0.661482128111319,right,stripes-2,stripes-8,right,right,0.6061163776175817,0.3037184286858974
MND1999m,2019-05-15-12-10-12,6,15,0.6679901361992158,right,stripes-4,stripes-2,right,right,0.4459144431129971,0.46382146715768613
MND1999m,2019-05-15-12-10-12,6,16,0.6042464677593297,right,stripes-8,stripes-2,right,left,0.3358624387255986,0.4639545725094649
MND1999m,2019-05-15-12-10-12,6,17,0.6553159320453156,left,stripes-4,stripes-8,left,left,0.3405254800345574,0.3838649565313972
MND1999m,2019-05-15-12-10-12,6,18,0.5195895047945484,right,stripes-4,stripes-2,right,right,0.7938991098726547,0.3439862192426517
MND1999m,2019-05-15-12-10-12,6,19,0.5682000469743808,left,stripes-4,stripes-4,left,right,0.5803772852614202,0.2877747086149611
MND1999m,2019-05-15-12-10-12,6,20,0.6999258432564727,right,stripes-8,heavy poles sphere,right,right,0.6216548727443296,0.4078453788497427
MND1999m,2019-05-15-12-10-12,6,21,0.658323144389573,right,stripes-8,stripes-4,right,right,0.8728147241890838,0.39200832965980226
MND1999m,2019-05-15-12-10-12,6,22,0.56021536937939,left,heavy poles sphere,stripes-8,left,left,0.21512624171919015,2.095805999568256
MND1999m,2019-05-15-12-10-12,6,23,0.6509533275789794,right,stripes-4,heavy poles sphere,right,right,0.12739301968031214,0.4077082305775548
MND1999m,2019-05-15-12-10-12,6,24,0.5079950522224179,right,heavy poles sphere,stripes-2,right,left,0.28554239498953393,0.4319554855901515
MND1999m,2019-05-15-12-10-12,6,25,0.5214681345708154,right,stripes-2,heavy poles sphere,right,right,0.46785754492702836,0.41583449904101144
MND1999m,2019-05-15-12-10-12,6,26,0.5963939574224343,right,stripes-2,stripes-8,right,right,0.015138246080823592,0.41587834916936117
MND1999m,2019-05-15-12-10-12,6,27,0.6681767380109027,right,stripes-2,stripes-2,right,right,0.7539245864863915,0.3599084807392501
MND1999m,2019-05-15-12-10-12,6,28,0.5766090179302682,right,heavy poles sphere,heavy poles sphere,right,right,0.11125275151789538,0.4077010777164105
MND1999m,2019-05-15-12-10-12,6,29,0.6128745486634312,left,stripes-8,stripes-8,left,left,0.2653741348931362,0.5358603861677693
MND1999m,2019-05-15-12-10-12,6,30,0.5694662803641761,left,stripes-2,stripes-4,left,left,0.8100760753077338,1.4078177004012105
MND1999m,2019-05-15-12-10-12,6,31,0.698631741240292,left,heavy poles sphere,stripes-4,left,left,0.2203388091056695,0.43972100122664415
MND1999m,2019-05-15-12-10-12,6,32,0.5031814796336034,left,stripes-4,stripes-2,left,left,0.30861160541826393,0.367720334455953
MND1999m,2019-05-15-12-10-12,6,33,0.6922410923677622,left,stripes-2,stripes-2,left,right,0.23648996205156436,0.42380029469859437
MND1999m,2019-05-15-12-10-12,6,34,0.6240468646795745,right,stripes-8,heavy poles sphere,right,right,0.34529736917829723,0.4158522256893775
MND1999m,2019-05-15-12-10-12,6,35,0.5603041474778057,left,stripes-4,stripes-8,right,right,0.5953948657406727,0.6398520540205936
MND1999m,2019-05-15-12-10-12,6,36,0.6243943000214894,right,heavy poles sphere,stripes-4,right,right,0.0725819142171531,0.3436826892739191
MND1999m,2019-05-15-12-10-12,6,37,0.5421234747974861,right,stripes-2,stripes-8,left,left,1.081603533884845,0.2717227626944805
MND1999m,2019-05-15-12-10-12,6,38,0.5243378662761109,left,stripes-2,heavy poles sphere,left,left,0.08577707092263154,0.39998034519157954
MND1999m,2019-05-15-12-10-12,6,39,0.6891913917765042,left,stripes-4,stripes-4,left,left,0.22998148342776403,0.4720024705366086
MND1999m,2019-05-15-12-10-12,6,40,0.5499608131461408,left,heavy poles sphere,stripes-2,left,left,0.4359579760275665,1.7837933657556277
MND1999m,2019-05-15-12-10-12,6,41,0.5309858894395049,right,stripes-2,stripes-4,right,left,0.4278631179367949,0.3997020057231566
MND1999m,2019-05-15-12-10-12,6,42,0.5355355103829523,right,heavy poles sphere,stripes-8,right,right,0.364968661153398,2.2477861905063037
MND1999m,2019-05-15-12-10-12,6,43,0.5359617587010121,right,stripes-8,stripes-2,right,right,0.6284830530148611,0.3677026078075869
MND1999m,2019-05-15-12-10-12,6,44,0.5402942044462384,right,stripes-8,stripes-4,right,left,0.2456331803041394,0.7197923929670651
MND1999m,2019-05-15-12-10-12,6,45,0.6290821851790296,right,stripes-8,stripes-8,right,right,0.29280223467685573,3.6557139827182255
MND1999m,2019-05-15-12-10-12,6,46,0.6507764646615393,left,stripes-4,heavy poles sphere,left,left,0.17021282550922479,0.38381737447889464
MND1999m,2019-05-15-12-10-12,6,47,0.5989501858596578,right,heavy poles sphere,heavy poles sphere,right,right,0.341138759844398,0.3838130205640482
MND1999m,2019-05-15-12-10-12,7,0,0.5501942577348823,right,stripes-2,stripes-8,right,left,0.5895419620846951,0.3679747273981775
MND1999m,2019-05-15-12-10-12,7,1,0.6459989878599977,right,stripes-8,stripes-4,right,right,0.02808896164788166,0.3438528028927976
MND1999m,2019-05-15-12-10-12,7,2,0.5400588164243991,right,stripes-2,stripes-2,right,right,0.44649755652244494,0.4238313940786611
MND1999m,2019-05-15-12-10-12,7,3,0.6539918628677106,left,stripes-2,stripes-4,left,left,0.19244701753814297,0.271937970417639
MND1999m,2019-05-15-12-10-12,7,4,0.5721176815482178,right,stripes-4,stripes-4,right,right,0.7260819319435541,0.2398356335470453
MND1999m,2019-05-15-12-10-12,7,5,0.692651581751631,right,heavy poles sphere,heavy poles sphere,right,right,1.3646984075257933,0.31168111440274515
MND1999m,2019-05-15-12-10-12,7,6,0.6589777088762055,right,heavy poles sphere,stripes-2,right,right,0.2385484301339602,0.36796322062764375
MND1999m,2019-05-15-12-10-12,7,7,0.5976055113128925,left,stripes-8,stripes-2,right,right,2.613426598305523,0.26369228032490355
MND1999m,2019-05-15-12-10-12,7,8,0.6309392072534421,right,stripes-8,heavy poles sphere,right,right,1.599656414029596,0.3679302552827721
MND1999m,2019-05-15-12-10-12,7,9,0.6029937972910201,left,heavy poles sphere,stripes-8,left,left,0.4808891188858979,0.26377313871853403
MND1999m,2019-05-15-12-10-12,7,10,0.6103545593046162,left,stripes-4,stripes-2,right,right,1.2974724288415018,0.3118403432381456
MND1999m,2019-05-15-12-10-12,7,11,0.6980448362583929,right,stripes-8,stripes-8,right,right,0.4114858724824444,0.3278213825669809
MND1999m,2019-05-15-12-10-12,7,12,0.6228724771976755,right,stripes-4,stripes-8,right,right,1.8274317073137354,0.43996450938539056
MND1999m,2019-05-15-12-10-12,7,13,0.5383055121815391,right,heavy poles sphere,stripes-4,right,left,0.9938379684881511,0.27170970095539815
MND1999m,2019-05-15-12-10-12,7,14,0.6843576734503203,right,stripes-4,heavy poles sphere,right,right,1.315291441636873,0.42394926073575334
MND1999m,2019-05-15-12-10-12,7,15,0.66673148764255,right,stripes-2,heavy poles sphere,right,right,3.081699319980544,0.3119523010118428
MND1999m,2019-05-15-12-10-12,7,16,0.6502594093498246,left,stripes-8,stripes-2,right,right,0.8616942072421807,0.375916576529562
MND1999m,2019-05-15-12-10-12,7,17,0.5015840709513556,right,stripes-4,heavy poles sphere,right,left,0.5600818286930007,0.3358583958070085
MND1999m,2019-05-15-12-10-12,7,18,0.565730704192341,right,stripes-2,stripes-8,right,right,0.8695175677312363,0.44784291577889235
MND1999m,2019-05-15-12-10-12,7,19,0.5129988628845569,right,stripes-2,stripes-2,left,right,10.217917100244449,0.2078297047610249
MND1999m,2019-05-15-12-10-12,7,20,0.6826753767806049,right,stripes-4,stripes-8,right,left,0.1410070850615739,0.3998223603321094
MND1999m,2019-05-15-12-10-12,7,21,0.6255374534513538,right,heavy poles sphere,heavy poles sphere,right,right,0.17536288313749537,0.3997219093289459
MND1999m,2019-05-15-12-10-12,7,22,0.5154074538785502,left,stripes-4,stripes-4,right,right,0.3708822086045984,1.4878233480467316
MND1999m,2019-05-15-12-10-12,7,23,0.6592013948079091,right,stripes-8,heavy poles sphere,left,left,0.48603606657525233,0.6158433312666602
MND1999m,2019-05-15-12-10-12,7,24,0.5661797257646104,right,heavy poles sphere,stripes-8,right,right,1.1071622498293436,0.5117754699276702
MND1999m,2019-05-15-12-10-12,7,25,0.6944554157575176,left,stripes-4,stripes-2,left,left,0.12456732985083363,0.42373156506437226
MND1999m,2019-05-15-12-10-12,7,26,0.6510201929049172,left,stripes-8,stripes-8,left,left,0.3312382716449065,3.103756867521952
MND1999m,2019-05-15-12-10-12,7,27,0.6522656065159095,right,heavy poles sphere,stripes-2,left,left,0.6537304641460651,0.4318447717887466
MND1999m,2019-05-15-12-10-12,7,28,0.675758185886684,left,heavy poles sphere,stripes-4,left,right,0.007533203253842657,0.5198190140381485
MND1999m,2019-05-15-12-10-12,7,29,0.5723307306588867,right,stripes-2,heavy poles sphere,right,right,0.35580709426722024,1.335827607417741
MND1999m,2019-05-15-12-10-12,7,30,0.5671228594984181,left,stripes-8,stripes-4,left,left,0.4076220852894039,4.239671428811562
MND1999m,2019-05-15-12-10-12,7,31,0.6516348587096694,right,stripes-2,stripes-4,right,right,0.4311870198635006,0.5118815188197914
MND1999m,2019-05-15-12-10-12,7,32,0.5795768493803903,left,stripes-2,stripes-4,right,right,0.15326272944366792,0.5997425593177468
MND1999m,2019-05-15-12-10-12,7,33,0.5442888087420524,left,stripes-8,heavy poles sphere,left,left,1.5492953191078414,0.39972564125309873
MND1999m,2019-05-15-12-10-12,7,34,0.5625308926110156,left,stripes-2,stripes-2,left,right,1.622960113800218,0.4400105364711635
MND1999m,2019-05-15-12-10-12,7,35,0.6909054573039064,left,heavy poles sphere,stripes-4,left,left,0.4239483277560794,2.9037601640557114
MND1999m,2019-05-15-12-10-12,7,36,0.5853924945678216,right,stripes-8,stripes-4,right,left,0.8405369868050911,0.4638388828097959
MND1999m,2019-05-15-12-10-12,7,37,0.5200424196525979,left,stripes-4,stripes-2,left,left,0.1022168261333718,0.46384696864879515
MND1999m,2019-05-15-12-10-12,7,38,0.6834346589733828,right,stripes-4,stripes-4,right,right,0.571031921026588,0.415842895874448
MND1999m,2019-05-15-12-10-12,7,39,0.6742875220139114,right,stripes-2,stripes-8,right,right,0.583654227122679,0.4076870829958352
MND1999m,2019-05-15-12-10-12,7,40,0.6450181243379856,right,stripes-8,stripes-2,right,left,0.44466922386345686,0.3679411400662502
MND1999m,2019-05-15-12-10-12,7,41,0.6085007570008413,right,heavy poles sphere,heavy poles sphere,right,right,0.36473697075780365,0.3838456749163015
MND1999m,2019-05-15-12-10-12,7,42,0.5976929656949778,right,stripes-4,stripes-8,right,right,0.3174758622153604,1.071750627739675
MND1999m,2019-05-15-12-10-12,7,43,0.6121205070751173,left,stripes-2,heavy poles sphere,left,left,0.6537220673126285,0.40797817321072216
MND1999m,2019-05-15-12-10-12,7,44,0.5944139840339141,left,stripes-8,stripes-8,left,left,0.2503307419246994,0.4397091834616731
MND1999m,2019-05-15-12-10-12,7,45,0.6264094650928027,left,heavy poles sphere,stripes-8,left,left,0.6622896360058803,0.3918447469095554
MND1999m,2019-05-15-12-10-12,7,46,0.6924529589325958,right,stripes-4,heavy poles sphere,right,right,0.5121816278533515,1.9517720116764394
MND1999m,2019-05-15-12-10-12,7,47,0.6807058434162228,right,heavy poles sphere,stripes-2,right,left,0.36859609304701735,0.47982614201646356
MND1999m,2019-05-15-12-10-12,8,0,0.5726670850806798,right,stripes-2,heavy poles sphere,right,left,0.4795201240976894,0.5758423734059761
MND1999m,2019-05-15-12-10-12,8,1,0.5863568306600332,left,stripes-4,stripes-2,left,right,0.0766898315596336,0.39201703748585714
MND1999m,2019-05-15-12-10-12,8,2,0.5412283435004087,right,stripes-8,heavy poles sphere,left,right,3.7002479864695488,0.20795068135703332
MND1999m,2019-05-15-12-10-12,8,3,0.646601918647678,left,stripes-2,stripes-2,left,right,0.7391091519893962,0.24782195479565416
MND1999m,2019-05-15-12-10-12,8,4,0.6617956174917274,right,stripes-2,stripes-4,left,right,0.383604032718722,0.3758515788213117
MND1999m,2019-05-15-12-10-12,8,5,0.5951081727122183,right,stripes-8,stripes-4,right,right,0.2243509403506323,0.3758223454024119
MND1999m,2019-05-15-12-10-12,8,6,0.6669986833612904,left,stripes-4,stripes-8,left,left,0.004526826016444829,0.39980556666523626
MND1999m,2019-05-15-12-10-12,8,7,0.5981214314853158,right,heavy poles sphere,heavy poles sphere,right,right,4.037369328172645,0.3998565696510923
MND1999m,2019-05-15-12-10-12,8,8,0.571011859451922,right,heavy poles sphere,stripes-8,right,right,0.6178535953058599,0.3838758413148753
MND1999m,2019-05-15-12-10-12,8,9,0.6083054508354419,right,stripes-2,stripes-8,right,left,0.08045161278278101,0.3999358730743552
MND1999m,2019-05-15-12-10-12,8,10,0.66303899513268,right,heavy poles sphere,stripes-2,right,left,0.23481121742224786,0.4158264132020122
MND1999m,2019-05-15-12-10-12,8,11,0.6513330852822431,right,stripes-4,stripes-4,right,right,0.6854586754525371,0.38380306876206305
MND1999m,2019-05-15-12-10-12,8,12,0.649433750092021,left,stripes-8,stripes-2,right,left,0.33536515960986435,0.8556802087878168
MND1999m,2019-05-15-12-10-12,8,13,0.6496675915321217,right,heavy poles sphere,stripes-4,right,right,0.9008436640287982,0.4558786850429897
MND1999m,2019-05-15-12-10-12,8,14,0.5978084675386263,right,stripes-8,stripes-8,right,right,0.46110991205750906,0.5838762767070875
MND1999m,2019-05-15-12-10-12,8,15,0.5544225293528645,left,stripes-4,heavy poles sphere,right,right,0.23716668460110668,0.44785504453648173
MND1999m,2019-05-15-12-10-12,8,16,0.6310934930793435,right,heavy poles sphere,stripes-8,right,right,0.1293130955145898,0.4397094944542914
MND1999m,2019-05-15-12-10-12,8,17,0.6241653048979912,left,stripes-8,stripes-2,right,left,1.1533040916201571,0.31196753971016733
MND1999m,2019-05-15-12-10-12,8,18,0.5968403000435785,right,stripes-4,stripes-2,right,right,2.6535280071693705,0.27969975412815984
MND1999m,2019-05-15-12-10-12,8,19,0.5894826919714682,right,heavy poles sphere,stripes-2,right,right,0.47842822480379255,0.6078784685905703
MND1999m,2019-05-15-12-10-12,8,20,0.5282751466121965,right,stripes-2,stripes-8,right,right,0.44426151097104594,0.4238547186159849
MND1999m,2019-05-15-12-10-12,8,21,0.5494399358747628,left,stripes-2,heavy poles sphere,left,left,0.29166119835826976,0.4718376438104315
MND1999m,2019-05-15-12-10-12,8,22,0.6496770017415472,right,stripes-2,stripes-2,right,right,1.5936047853247146,0.4398805410546629
MND1999m,2019-05-15-12-10-12,8,23,0.6210040289930583,left,stripes-8,stripes-8,left,left,0.6614036146183935,0.4077247132481716
MND1999m,2019-05-15-12-10-12,8,24,0.5419733769534966,right,heavy poles sphere,stripes-4,right,left,0.37250715130176104,0.415875239232264
MND1999m,2019-05-15-12-10-12,8,25,0.5414973571246314,right,stripes-4,stripes-8,right,right,0.6380968049106741,0.35179745097048
MND1999m,2019-05-15-12-10-12,8,26,0.6397538996438766,left,heavy poles sphere,heavy poles sphere,left,left,0.48597137986143935,0.4396821269983775
MND1999m,2019-05-15-12-10-12,8,27,0.6131211907882114,right,stripes-8,stripes-4,right,right,0.29571686873896397,0.47983858176849026
MND1999m,2019-05-15-12-10-12,8,28,0.618653244094256,right,stripes-4,stripes-4,right,right,0.5990910272685142,0.6078196907601523
MND1999m,2019-05-15-12-10-12,8,29,0.6437265539336375,right,stripes-8,heavy poles sphere,right,right,0.588886076122435,0.5277369166469725
MND1999m,2019-05-15-12-10-12,8,30,0.649277710339948,right,stripes-4,heavy poles sphere,right,right,0.7738527593537583,0.5038255349554674
MND1999m,2019-05-15-12-10-12,8,31,0.5884084651480176,left,stripes-2,stripes-4,right,left,0.2895181399580906,0.4638500785877113
MND1999m,2019-05-15-12-10-12,8,32,0.685088855395471,left,heavy poles sphere,heavy poles sphere,left,left,0.8735583104080433,0.4397971947109909
MND1999m,2019-05-15-12-10-12,8,33,0.6749372304882082,left,stripes-8,stripes-2,left,left,0.024423588507488603,0.4478491356549057
MND1999m,2019-05-15-12-10-12,8,34,0.5658704532676097,left,stripes-8,stripes-8,left,left,0.2780996909350506,0.43180807451972214
MND1999m,2019-05-15-12-10-12,8,35,0.5752745562305356,left,stripes-4,heavy poles sphere,left,left,0.026912161039945204,0.43984913067833986
MND1999m,2019-05-15-12-10-12,8,36,0.5227746970652024,left,stripes-4,stripes-8,left,left,0.5225952558503195,0.6479630837893637
MND1999m,2019-05-15-12-10-12,8,37,0.6636702393063946,left,stripes-2,stripes-2,left,left,0.3037112758283911,0.4077502147410996
MND1999m,2019-05-15-12-10-12,8,38,0.6432581541464186,right,heavy poles sphere,stripes-2,right,right,1.977588541496516,0.6718169316227431
MND1999m,2019-05-15-12-10-12,8,39,0.5817471550943217,left,stripes-4,stripes-2,left,right,0.45349771637302183,0.43194149086593825
MND1999m,2019-05-15-12-10-12,8,40,0.6614518544167998,left,stripes-2,stripes-8,left,left,0.0861387567329075,0.4719393387895252
MND1999m,2019-05-15-12-10-12,8,41,0.6801630610874129,right,heavy poles sphere,stripes-4,right,right,0.3723762229055865,0.463682141926256
MND1999m,2019-05-15-12-10-12,8,42,0.5028092315568577,right,stripes-8,heavy poles sphere,right,right,0.4943952694120526,0.3919635465481406
MND1999m,2019-05-15-12-10-12,8,43,0.6330822376481694,left,stripes-2,heavy poles sphere,left,right,1.969663797022804,0.3996948528656503
MND1999m,2019-05-15-12-10-12,8,44,0.6628205972017571,left,heavy poles sphere,stripes-8,left,right,1.2549682817389112,0.5597764327631012
MND1999m,2019-05-15-12-10-12,8,45,0.5009794863525114,left,stripes-2,stripes-4,left,left,0.5282251769403956,0.4158391639484762
MND1999m,2019-05-15-12-10-12,8,46,0.5202332014698138,left,stripes-4,stripes-4,left,right,0.4523125189316488,0.4316954947553313
MND1999m,2019-05-15-12-10-12,8,47,0.6187304140818393,left,stripes-8,stripes-4,left,right,0.43092485207489517,0.4557076384426182
MND1999m,2019-05-15-12-10-12,9,0,0.5451768771061738,left,stripes-2,stripes-2,left,right,1.5531065483482962,0.43995393559634977
MND1999m,2019-05-15-12-10-12,9,1,0.5599191874750836,right,stripes-2,stripes-4,right,right,0.3608937091539701,0.4238313940804801
MND1999m,2019-05-15-12-10-12,9,2,0.5426762435876877,right,stripes-2,stripes-8,right,left,0.011017266999260755,0.4798469786019268
MND1999m,2019-05-15-12-10-12,9,3,0.6337680640228683,right,heavy poles sphere,stripes-4,right,left,0.30191124360862887,0.42399653179563757
MND1999m,2019-05-15-12-10-12,9,4,0.5863093218622613,left,stripes-8,heavy poles sphere,left,left,0.505547507726078,0.7038004688529327
MND1999m,2019-05-15-12-10-12,9,5,0.5845522622811224,right,heavy poles sphere,heavy poles sphere,right,right,1.634459732209507,0.44782674410089385
MND1999m,2019-05-15-12-10-12,9,6,0.5840459023767217,left,stripes-4,heavy poles sphere,left,left,0.9987669095098681,0.43982331819097453
MND1999m,2019-05-15-12-10-12,9,7,0.6940289238458629,left,stripes-8,stripes-4,left,left,0.13627997902585776,0.5117303758233902
MND1999m,2019-05-15-12-10-12,9,8,0.5118633407653228,right,stripes-8,stripes-2,right,right,1.3690600958234427,0.4398357579448202
MND1999m,2019-05-15-12-10-12,9,9,0.606973414409131,left,stripes-2,heavy poles sphere,left,left,1.0477335081541241,0.5036899416500091
MND1999m,2019-05-15-12-10-12,9,10,0.6921884466283065,right,stripes-4,stripes-8,left,left,3.1161250916647987,0.46388086697515973
MND1999m,2019-05-15-12-10-12,9,11,0.6333206394887403,left,heavy poles sphere,stripes-2,left,left,0.48933788794056454,0.3998167624431517
MND1999m,2019-05-15-12-10-12,9,12,0.5547179035556863,right,stripes-8,stripes-8,right,right,0.35075593267356453,0.5036691050645459
MND1999m,2019-05-15-12-10-12,9,13,0.5208809025650301,right,stripes-4,stripes-2,right,right,0.4627986084888107,0.4717480775925651
MND1999m,2019-05-15-12-10-12,9,14,0.6459299369367131,right,stripes-4,stripes-4,right,right,0.4779328116510442,0.631815040780566
MND1999m,2019-05-15-12-10-12,9,15,0.6580482715490525,right,heavy poles sphere,stripes-8,right,left,0.24700155310347327,0.4798379597814346
MND1999m,2019-05-15-12-10-12,9,16,0.644630417801122,left,stripes-2,stripes-2,left,left,0.8317427036181471,0.36779932688477857
MND1999m,2019-05-15-12-10-12,9,17,0.5494334910494354,left,heavy poles sphere,stripes-4,left,left,0.3694861573530943,0.39983791002305225
MND1999m,2019-05-15-12-10-12,9,18,0.6294492747261335,right,stripes-4,heavy poles sphere,right,right,1.1374676644190913,3.023734737202176
MND1999m,2019-05-15-12-10-12,9,19,0.5383076885746882,left,stripes-2,heavy poles sphere,right,left,1.6828988853358169,0.3518120676799299
MND1999m,2019-05-15-12-10-12,9,20,0.6616551555794837,left,heavy poles sphere,stripes-8,left,left,0.13381815196225944,0.41583449904101144
MND1999m,2019-05-15-12-10-12,9,21,0.6410339736061488,left,heavy poles sphere,heavy poles sphere,left,left,0.42349925268354127,0.41582765717794246
MND1999m,2019-05-15-12-10-12,9,22,0.5584131685581439,left,heavy poles sphere,stripes-2,left,left,0.13544371665011568,0.4718304909529252
MND1999m,2019-05-15-12-10-12,9,23,0.5790680037221423,right,stripes-2,stripes-4,right,right,0.07903006004016788,0.43192500819350244
MND1999m,2019-05-15-12-10-12,9,24,0.5167388120221925,right,stripes-8,heavy poles sphere,right,right,0.3660039595724811,0.37579466695387964
MND1999m,2019-05-15-12-10-12,9,25,0.5775014056324668,right,stripes-4,stripes-2,right,right,0.0962336160682753,0.3838453639218642
MND1999m,2019-05-15-12-10-12,9,26,0.5311819302744234,left,stripes-8,stripes-8,right,right,0.43051900514365116,0.4158270351908868
MND1999m,2019-05-15-12-10-12,9,27,0.6275508967540658,left,stripes-8,stripes-4,right,right,0.52239186589577,0.36796819652772683
MND1999m,2019-05-15-12-10-12,9,28,0.5763106162155107,left,stripes-4,stripes-8,right,right,0.6703431319201627,0.43184197284426773
MND1999m,2019-05-15-12-10-12,9,29,0.5512473120751928,left,stripes-4,stripes-4,left,left,0.16349007214375888,0.5278684670302027
MND1999m,2019-05-15-12-10-12,9,30,0.5254400785350243,left,stripes-8,stripes-2,right,right,0.041699917088408256,2.031772061434822
MND1999m,2019-05-15-12-10-12,9,31,0.5678957350570578,left,stripes-2,stripes-8,left,left,0.2940766873434768,0.511799727444668
MND1999m,2019-05-15-12-10-12,9,32,0.5131092564468066,right,stripes-4,stripes-8,right,right,0.9681066509765515,0.4718289359843766
MND1999m,2019-05-15-12-10-12,9,33,0.633740695626954,left,heavy poles sphere,stripes-8,right,left,0.8204219066519727,0.439671864203774
MND1999m,2019-05-15-12-10-12,9,34,0.6931983722425896,left,stripes-8,heavy poles sphere,left,left,0.3820272940611176,0.47980810437366017
MND1999m,2019-05-15-12-10-12,9,35,0.5746258737386069,right,stripes-4,stripes-2,right,right,0.5952070254752471,0.4958168221528467
MND1999m,2019-05-15-12-10-12,9,36,0.5570586764115592,right,stripes-2,heavy poles sphere,right,left,0.4657953449204797,0.5277235439116339
MND1999m,2019-05-15-12-10-12,9,37,0.5773267132639308,right,stripes-4,stripes-4,right,right,0.7695837472147105,1.343785628228943
MND1999m,2019-05-15-12-10-12,9,38,0.5520381331557631,right,heavy poles sphere,stripes-2,right,left,1.1258679059974384,0.351790609105592
MND1999m,2019-05-15-12-10-12,9,39,0.5166284575663865,left,stripes-2,stripes-4,right,right,0.4687964352651761,0.36778253321790544
MND1999m,2019-05-15-12-10-12,9,40,0.693676062061227,right,stripes-8,stripes-8,right,right,0.5181527091608586,0.44782145720637345
MND1999m,2019-05-15-12-10-12,9,41,0.6729555895614184,right,stripes-2,stripes-8,right,right,0.0512057541309332,0.3998500387806416
MND1999m,2019-05-15-12-10-12,9,42,0.6130931240548922,left,stripes-8,stripes-2,right,right,0.3754870940665569,0.38382452733640093
MND1999m,2019-05-15-12-10-12,9,43,0.6218545557551187,right,stripes-4,heavy poles sphere,right,right,0.39289559502140037,0.4158534696653078
MND1999m,2019-05-15-12-10-12,9,44,0.5484163657459324,right,stripes-2,stripes-2,right,right,0.378327089614686,1.8237657121844677
MND1999m,2019-05-15-12-10-12,9,45,0.6071368198233186,right,heavy poles sphere,stripes-4,right,right,0.5764995033423475,0.4398226962039189
MND1999m,2019-05-15-12-10-12,9,46,0.5257443062323499,left,heavy poles sphere,heavy poles sphere,right,right,0.34781735208707687,0.4478199022360059
MND1999m,2019-05-15-12-10-12,9,47,0.5563191765703307,left,stripes-8,stripes-4,left,right,0.36464118466210493,0.535712042115847
MND1999m,2019-05-15-12-10-12,10,0,0.530454426207295,left,stripes-8,stripes-2,right,right,0.29127307807357283,0.48780562140018446
MND1999m,2019-05-15-12-10-12,10,1,0.6465119289787221,right,stripes-2,stripes-2,right,right,0.40937142551410943,1.639658304871773
MND1999m,2019-05-15-12-10-12,10,2,0.5149912661592033,left,stripes-2,stripes-4,left,right,0.6803086178260855,0.6158134758607048
MND1999m,2019-05-15-12-10-12,10,3,0.5748681908858458,left,heavy poles sphere,stripes-2,right,right,0.25399829202251567,0.49583703675125435
MND1999m,2019-05-15-12-10-12,10,4,0.5270719858147258,left,heavy poles sphere,stripes-4,right,left,0.46680949576148123,0.5359549282893568
MND1999m,2019-05-15-12-10-12,10,5,0.6785395970728927,left,stripes-4,stripes-2,right,left,1.2538841572913952,0.4638404377801635
MND1999m,2019-05-15-12-10-12,10,6,0.6347548571072109,right,stripes-8,heavy poles sphere,right,right,1.6951103685951239,0.4558702882113721
MND1999m,2019-05-15-12-10-12,10,7,0.6861106067003989,left,stripes-8,stripes-4,left,left,0.2674621473870502,0.3997234642974945
MND1999m,2019-05-15-12-10-12,10,8,0.6860758330449167,right,heavy poles sphere,stripes-8,right,left,0.19746459179987141,0.3678108336571313
MND1999m,2019-05-15-12-10-12,10,9,0.6241515003287184,right,stripes-4,heavy poles sphere,right,left,0.1576928363829211,0.2718238356846996
MND1999m,2019-05-15-12-10-12,10,10,0.5207385370381595,left,stripes-4,stripes-4,right,left,0.11886961210984737,0.543870031951883
MND1999m,2019-05-15-12-10-12,10,11,0.6669562598073634,left,stripes-8,stripes-8,left,left,0.7361145925133314,0.2878191807303665
MND1999m,2019-05-15-12-10-12,10,12,0.6888028279119611,right,heavy poles sphere,heavy poles sphere,right,left,0.4767286435890128,0.39169982379098656
MND1999m,2019-05-15-12-10-12,10,13,0.5894538728702755,left,stripes-2,stripes-8,left,right,0.6412521481906879,0.391846301879923
MND1999m,2019-05-15-12-10-12,10,14,0.6675411103621214,left,stripes-4,stripes-8,left,left,0.7797062849986105,0.2798095349462528
MND1999m,2019-05-15-12-10-12,10,15,0.5403125647922042,left,stripes-2,heavy poles sphere,right,right,0.7795759785894916,0.3358042828822363
MND1999m,2019-05-15-12-10-12,10,16,0.5833038967451464,left,heavy poles sphere,stripes-4,right,left,0.5913678067900037,0.5198398506236117
MND1999m,2019-05-15-12-10-12,10,17,0.6418993598330083,left,stripes-8,stripes-8,left,left,0.3677943509846955,0.29593269844917813
MND1999m,2019-05-15-12-10-12,10,18,0.5116700372130624,left,stripes-4,stripes-8,left,left,1.4805812350059568,0.25586052300423034
MND1999m,2019-05-15-12-10-12,10,19,0.644894898640882,left,stripes-4,heavy poles sphere,left,left,0.13659594874661707,0.3679573117442487
MND1999m,2019-05-15-12-10-12,10,20,0.6924212402584984,left,stripes-8,heavy poles sphere,left,left,0.24864391145638365,1.0878336730420415
MND1999m,2019-05-15-12-10-12,10,21,0.5492599000455972,left,stripes-4,stripes-4,left,left,0.8603584887951001,0.21584805837301246
MND1999m,2019-05-15-12-10-12,10,22,0.6051778083366257,left,stripes-2,stripes-4,left,left,1.5434772467579023,0.23982039484872075
MND1999m,2019-05-15-12-10-12,10,23,0.5744874682921649,right,heavy poles sphere,stripes-8,right,right,0.008340854201378534,0.39965006975580764
MND1999m,2019-05-15-12-10-12,10,24,0.5075112796711589,left,stripes-4,stripes-2,left,right,1.298493110554773,0.34382232549978653
MND1999m,2019-05-15-12-10-12,10,25,0.633942240880737,right,stripes-2,stripes-8,right,left,1.0299266241181613,0.3437047698353126
MND1999m,2019-05-15-12-10-12,10,26,0.5744124693091677,right,stripes-2,heavy poles sphere,right,left,0.29537788547895616,0.27978310047183186
MND1999m,2019-05-15-12-10-12,10,27,0.5136311873686025,right,heavy poles sphere,heavy poles sphere,right,right,0.3097809421742568,1.0398124956082029
MND1999m,2019-05-15-12-10-12,10,28,0.6019733240662672,right,stripes-8,stripes-4,right,right,0.5740019119893986,0.311806444911781
MND1999m,2019-05-15-12-10-12,10,29,0.511941454450625,left,stripes-2,stripes-2,left,right,0.6287840950299142,0.3917455398823222
MND1999m,2019-05-15-12-10-12,10,30,0.6019039006723155,left,heavy poles sphere,stripes-2,left,right,0.8111990739835164,1.3118030239802465
MND1999m,2019-05-15-12-10-12,10,31,0.5841713646809564,right,stripes-8,stripes-2,left,right,2.4528393424589012,0.20771308207804395
MND1999m,2019-05-15-12-10-12,10,32,0.6504162861849183,left,stripes-4,stripes-4,left,left,0.6539099075780541,0.39195359474615543
MND1999m,2019-05-15-12-10-12,10,33,0.5412819339332671,left,stripes-2,heavy poles sphere,left,left,0.6384560027709085,0.4398282940928766
MND1999m,2019-05-15-12-10-12,10,34,0.5549922453225219,right,stripes-8,stripes-4,right,right,0.12365953889639059,0.39985190474362753
MND1999m,2019-05-15-12-10-12,10,35,0.5918354091981276,right,heavy poles sphere,stripes-4,right,left,0.3680652265993558,0.4556973756480147
MND1999m,2019-05-15-12-10-12,10,36,0.6986341921796846,right,stripes-4,heavy poles sphere,right,left,0.474694744018052,0.44781928024895024
MND1999m,2019-05-15-12-10-12,10,37,0.6349733853325015,right,stripes-2,stripes-4,right,left,0.4591882812565018,0.43178692693982157
MND1999m,2019-05-15-12-10-12,10,38,0.5480250069727346,left,stripes-2,stripes-8,right,left,0.18515234654114465,0.4478202132286242
MND1999m,2019-05-15-12-10-12,10,39,0.6832191004188078,right,heavy poles sphere,stripes-8,right,right,0.6045670064158912,0.5198457595051877
MND1999m,2019-05-15-12-10-12,10,40,0.5823303708333497,left,stripes-2,stripes-2,left,right,1.5029933154983155,2.039892110024084
MND1999m,2019-05-15-12-10-12,10,41,0.6078933228335934,right,stripes-4,stripes-2,right,left,0.26941798751067836,0.40793432308237243
MND1999m,2019-05-15-12-10-12,10,42,0.6073135125894029,left,stripes-8,heavy poles sphere,left,left,0.4422611987320124,0.3679265233568003
MND1999m,2019-05-15-12-10-12,10,43,0.5505399414431991,right,heavy poles sphere,heavy poles sphere,right,right,0.41314626847815816,0.3518478319692804
MND1999m,2019-05-15-12-10-12,10,44,0.6391643784781171,left,heavy poles sphere,stripes-2,left,right,0.30838862285236246,0.3518223304745334
MND1999m,2019-05-15-12-10-12,10,45,0.6305364965252663,left,stripes-4,stripes-8,left,left,0.7999759290778456,0.43169798270719184
MND1999m,2019-05-15-12-10-12,10,46,0.5531800913751008,right,stripes-8,stripes-8,right,right,0.25489271024343907,0.3918683824394975
MND1999m,2019-05-15-12-10-12,10,47,0.6692524099552967,right,stripes-8,stripes-2,right,right,0.16896449632440635,0.35182575140788686
