Participant,Session,Block,Trial,OnsetDelay,Bias,Shape1,Shape2,Response1,Response2,RT1,RT2
JRR1974M,2019-06-07-12-13-25,0,0,0.5664314865565647,left,stripes-4,heavy poles sphere,right,right,7.906489906976958,0.3838679570658883
JRR1974M,2019-06-07-12-13-25,0,1,0.6815971564796531,left,stripes-4,stripes-8,right,right,14.980679776540569,0.20791966509079884
JRR1974M,2019-06-07-12-13-25,0,2,0.6195505664993748,right,stripes-2,stripes-4,right,right,48.220374885046795,0.2078478242006554
JRR1974M,2019-06-07-12-13-25,0,3,0.5033759503095531,right,heavy poles sphere,stripes-2,right,right,4.825435033909855,3.5677703728791244
JRR1974M,2019-06-07-12-13-25,0,4,0.5048470433686637,left,stripes-4,stripes-4,right,right,12.532856633262213,0.5438190555006486
JRR1974M,2019-06-07-12-13-25,0,5,0.5009471471232572,right,stripes-8,stripes-8,right,right,31.458160767472123,3.135746627443382
JRR1974M,2019-06-07-12-13-25,0,6,0.5614256299101766,right,heavy poles sphere,stripes-8,right,right,0.7376081461970898,0.28782788291118777
JRR1974M,2019-06-07-12-13-25,0,7,0.6846055245446137,left,stripes-2,stripes-2,right,right,3.1312918702546995,0.38383810111156436
JRR1974M,2019-06-07-12-13-25,0,8,0.6737622529263694,left,stripes-8,stripes-4,right,right,5.671733781919102,0.5196714974222232
JRR1974M,2019-06-07-12-13-25,0,9,0.645160913500998,right,stripes-4,stripes-2,right,right,1.5525146022051786,0.25582416584484235
JRR1974M,2019-06-07-12-13-25,0,10,0.6669631402103413,right,stripes-2,heavy poles sphere,right,right,5.028197082886663,0.23194002436366645
JRR1974M,2019-06-07-12-13-25,0,11,0.5132746000226821,right,stripes-8,heavy poles sphere,right,right,48.25584282581633,6.887584556883212
JRR1974M,2019-06-07-12-13-25,0,12,0.5075583815524394,left,heavy poles sphere,heavy poles sphere,right,right,0.2768862976407718,0.19966573771102958
JRR1974M,2019-06-07-12-13-25,0,13,0.5675121881050859,left,stripes-2,stripes-8,left,left,0.625193014079855,0.18370959610808768
JRR1974M,2019-06-07-12-13-25,0,14,0.515939269536108,left,heavy poles sphere,stripes-4,right,right,1.123967209454122,0.18370182111993927
JRR1974M,2019-06-07-12-13-25,0,15,0.5665043997330537,right,stripes-8,stripes-2,left,left,1.5027353963175756,0.18381004895445585
JRR1974M,2019-06-07-12-13-25,0,16,0.5062515199573377,left,stripes-2,stripes-4,left,left,3.5646669086243037,0.19183383668610077
JRR1974M,2019-06-07-12-13-25,0,17,0.5724354036972134,right,stripes-2,stripes-2,right,right,1.8596536895895497,0.15984877959124333
JRR1974M,2019-06-07-12-13-25,0,18,0.5282133683992295,right,stripes-2,heavy poles sphere,left,left,7.972673404782313,0.16766855163473338
JRR1974M,2019-06-07-12-13-25,0,19,0.575997409359175,left,heavy poles sphere,stripes-2,right,right,0.21006960480360704,0.15985748757793772
JRR1974M,2019-06-07-12-13-25,0,20,0.5951283435988061,left,stripes-4,stripes-4,left,left,0.2984833486190155,0.1439364889212129
JRR1974M,2019-06-07-12-13-25,0,21,0.5643378832509431,left,stripes-8,stripes-2,right,right,13.151663894105809,0.1597980866687294
JRR1974M,2019-06-07-12-13-25,0,22,0.5266203832020342,right,heavy poles sphere,heavy poles sphere,right,right,0.4291103018903186,0.13580882734834177
JRR1974M,2019-06-07-12-13-25,0,23,0.593887607128921,right,stripes-2,stripes-8,right,right,1.7333368787279824,0.1837904559843082
JRR1974M,2019-06-07-12-13-25,0,24,0.5536615382101266,right,stripes-4,stripes-8,left,left,0.9437970989341693,0.15980492865821816
JRR1974M,2019-06-07-12-13-25,0,25,0.6939083980576495,left,stripes-4,heavy poles sphere,left,left,1.0554546362099018,0.1438693130238562
JRR1974M,2019-06-07-12-13-25,0,26,0.5312516633852481,left,stripes-8,stripes-4,left,left,4.752464593481591,0.15981394764446577
JRR1974M,2019-06-07-12-13-25,0,27,0.534903127862647,right,heavy poles sphere,stripes-8,left,left,6.907046596125724,0.1679465852097337
JRR1974M,2019-06-07-12-13-25,0,28,0.5969736644324085,left,stripes-8,heavy poles sphere,right,right,5.586512448222379,1.791813186317654
JRR1974M,2019-06-07-12-13-25,0,29,0.6753413279374516,right,heavy poles sphere,stripes-4,right,right,3.994404496555603,0.15982514362735856
JRR1974M,2019-06-07-12-13-25,0,30,0.6203958523061893,right,stripes-4,stripes-2,left,left,5.350286539411968,0.15983136361785455
JRR1974M,2019-06-07-12-13-25,0,31,0.5574649245828623,right,stripes-8,stripes-8,left,left,0.06247202948020458,2.6317995769784375
JRR1974M,2019-06-07-12-13-25,0,32,0.5159596391774235,left,heavy poles sphere,stripes-2,right,right,2.4922578223378196,3.319755405093929
JRR1974M,2019-06-07-12-13-25,0,33,0.5119987670106483,right,stripes-4,stripes-2,left,left,2.3774834478277853,0.1278270245524027
JRR1974M,2019-06-07-12-13-25,0,34,0.5901555534437957,left,stripes-4,stripes-8,left,left,2.4014273012177227,5.4077110466098475
JRR1974M,2019-06-07-12-13-25,0,35,0.627767174618408,right,heavy poles sphere,stripes-4,right,right,0.42562897321329274,0.16784613236325185
JRR1974M,2019-06-07-12-13-25,0,36,0.5464143226758506,right,stripes-4,stripes-4,right,right,0.8185662984121791,0.18382777592739785
JRR1974M,2019-06-07-12-13-25,0,37,0.653738968068087,right,heavy poles sphere,stripes-8,left,left,3.863585345577917,0.15984629159504493
JRR1974M,2019-06-07-12-13-25,0,38,0.5084584122257502,right,stripes-8,heavy poles sphere,left,left,6.271647510650951,0.18394502274804836
JRR1974M,2019-06-07-12-13-25,0,39,0.5140617119893658,right,stripes-2,heavy poles sphere,right,right,3.388424411099095,2.0158398277808374
JRR1974M,2019-06-07-12-13-25,0,40,0.6848288882906386,left,stripes-8,stripes-2,right,right,2.323917511730201,1.4958299628759733
JRR1974M,2019-06-07-12-13-25,0,41,0.5475885209127158,left,stripes-8,stripes-4,left,left,2.873500321418078,0.15987770254707812
JRR1974M,2019-06-07-12-13-25,0,42,0.5807777894135026,right,stripes-8,stripes-8,left,left,13.925183155394961,0.35184060403571493
JRR1974M,2019-06-07-12-13-25,0,43,0.5241230436072235,left,stripes-2,stripes-4,right,right,0.07325687099023526,0.16771209156820532
JRR1974M,2019-06-07-12-13-25,0,44,0.5110212444654768,right,stripes-2,stripes-2,right,right,3.5622594613053025,2.447787067333593
JRR1974M,2019-06-07-12-13-25,0,45,0.6540364243845235,left,heavy poles sphere,heavy poles sphere,left,left,0.140715466846018,0.17597130593981092
JRR1974M,2019-06-07-12-13-25,0,46,0.6868739775770675,right,stripes-2,stripes-8,right,right,3.115148506937885,0.18367663015840208
JRR1974M,2019-06-07-12-13-25,0,47,0.6472321953438849,left,stripes-4,heavy poles sphere,right,right,0.6430829507261251,0.17573245830499218
JRR1974M,2019-06-07-12-13-25,1,0,0.5931279683186926,left,stripes-4,stripes-4,right,right,2.404972073797694,0.1677951284412984
JRR1974M,2019-06-07-12-13-25,1,1,0.6747684914292889,right,stripes-4,stripes-2,left,left,6.4726620532997,0.15193384169322144
JRR1974M,2019-06-07-12-13-25,1,2,0.6116121736437921,left,stripes-8,stripes-2,right,right,1.5861311628053727,1.5836867065430624
JRR1974M,2019-06-07-12-13-25,1,3,0.6173578304051226,right,stripes-2,stripes-4,right,right,4.103947859063737,1.9038100240744598
JRR1974M,2019-06-07-12-13-25,1,4,0.6568282960436198,left,stripes-2,stripes-8,right,right,1.472296317858877,1.5998583708166052
JRR1974M,2019-06-07-12-13-25,1,5,0.5842386970731597,left,stripes-8,heavy poles sphere,right,right,5.028383682601316,3.231795720584387
JRR1974M,2019-06-07-12-13-25,1,6,0.5916774141707691,left,stripes-2,heavy poles sphere,right,right,18.540569732468953,0.6796969247433253
JRR1974M,2019-06-07-12-13-25,1,7,0.525371385292964,left,stripes-4,heavy poles sphere,left,left,0.3906611196789527,0.16793352322974897
JRR1974M,2019-06-07-12-13-25,1,8,0.6727948257132053,right,heavy poles sphere,stripes-4,left,left,1.0528521921889933,3.4158866021093672
JRR1974M,2019-06-07-12-13-25,1,9,0.6788236851432776,right,stripes-2,stripes-2,left,left,2.5063066038571833,0.22383164476127604
JRR1974M,2019-06-07-12-13-25,1,10,0.6257995994680449,right,stripes-8,stripes-8,left,left,1.7447387432944197,0.17582171516869494
JRR1974M,2019-06-07-12-13-25,1,11,0.5750494640140413,left,heavy poles sphere,stripes-8,left,left,1.187185015794057,0.2158243400047013
JRR1974M,2019-06-07-12-13-25,1,12,0.6957941897864688,right,stripes-8,stripes-4,right,right,3.077237353904138,0.16783120438617516
JRR1974M,2019-06-07-12-13-25,1,13,0.5326041139827562,left,heavy poles sphere,stripes-2,right,right,3.4439319172281557,0.14384505506086498
JRR1974M,2019-06-07-12-13-25,1,14,0.5211124578513707,right,heavy poles sphere,heavy poles sphere,left,left,0.06975626034250126,2.287026126137107
JRR1974M,2019-06-07-12-13-25,1,15,0.5502521838365799,left,stripes-4,stripes-8,right,right,2.6546835439887673,1.287699751107084
JRR1974M,2019-06-07-12-13-25,1,16,0.6519744678724967,left,stripes-2,stripes-4,left,left,0.1544134409018625,1.0638817903247855
JRR1974M,2019-06-07-12-13-25,1,17,0.6157109651846724,left,stripes-4,stripes-4,left,left,0.00695021737328716,4.759798895267522
JRR1974M,2019-06-07-12-13-25,1,18,0.6714416946360126,left,heavy poles sphere,stripes-4,left,left,1.2249042821215426,0.1839468887451403
JRR1974M,2019-06-07-12-13-25,1,19,0.6952657752925906,right,stripes-4,heavy poles sphere,left,left,2.595806047012502,0.15980617265631736
JRR1974M,2019-06-07-12-13-25,1,20,0.615487147303144,left,stripes-8,stripes-4,left,left,1.1055495066148069,0.7038379518317015
JRR1974M,2019-06-07-12-13-25,1,21,0.5889031043127088,right,stripes-8,heavy poles sphere,left,left,7.6405162716507675,0.1436575223476666
JRR1974M,2019-06-07-12-13-25,1,22,0.6909197067545312,right,heavy poles sphere,heavy poles sphere,left,left,2.152181397314507,0.17571410933305742
JRR1974M,2019-06-07-12-13-25,1,23,0.5209842928824888,left,stripes-2,stripes-2,left,left,2.331504345129815,0.9038526310093857
JRR1974M,2019-06-07-12-13-25,1,24,0.5894393194578361,right,stripes-4,stripes-2,right,right,1.0623183957152378,0.15987397055278052
JRR1974M,2019-06-07-12-13-25,1,25,0.5875011833505486,right,stripes-2,heavy poles sphere,right,right,2.6773143573861944,0.15982110063350774
JRR1974M,2019-06-07-12-13-25,1,26,0.6537251657720162,right,stripes-4,stripes-8,right,right,2.0541860691494094,1.063880235327133
JRR1974M,2019-06-07-12-13-25,1,27,0.6656786412689418,right,stripes-8,stripes-8,right,right,1.275498306763211,0.19185467365423392
JRR1974M,2019-06-07-12-13-25,1,28,0.6191675069596669,left,heavy poles sphere,stripes-8,right,right,3.9582930977699107,0.2238008558083493
JRR1974M,2019-06-07-12-13-25,1,29,0.5672170453535468,right,heavy poles sphere,stripes-2,right,right,1.005606699427517,0.20785715418651307
JRR1974M,2019-06-07-12-13-25,1,30,0.6059273365061119,left,stripes-8,stripes-2,left,left,1.4353060344171809,0.19981563948181247
JRR1974M,2019-06-07-12-13-25,1,31,0.5933524833994367,left,stripes-2,stripes-8,left,left,2.735319500696505,0.2076857934482632
JRR1974M,2019-06-07-12-13-25,1,32,0.6699002792275323,left,stripes-4,stripes-4,left,left,0.499539254204592,0.1677369715300756
JRR1974M,2019-06-07-12-13-25,1,33,0.546446474204469,right,stripes-2,heavy poles sphere,left,left,3.60282561727945,0.23199227228360542
JRR1974M,2019-06-07-12-13-25,1,34,0.6811411909293276,left,heavy poles sphere,stripes-4,left,left,0.7557341314825408,0.17585219312195477
JRR1974M,2019-06-07-12-13-25,1,35,0.6489397752193562,left,stripes-2,stripes-8,right,right,2.898959053491808,0.18371674909712965
JRR1974M,2019-06-07-12-13-25,1,36,0.6203736532449557,right,stripes-8,stripes-2,right,right,2.3236979460657494,0.2158482869681393
JRR1974M,2019-06-07-12-13-25,1,37,0.5248699601803544,right,heavy poles sphere,stripes-2,right,right,1.759661744477171,0.19981066348941567
JRR1974M,2019-06-07-12-13-25,1,38,0.5219223450055268,right,stripes-4,stripes-2,right,right,3.546027463124119,0.2158240290050344
JRR1974M,2019-06-07-12-13-25,1,39,0.6046101597775201,right,stripes-4,stripes-8,right,right,1.6076520189001258,0.1918257506986265
JRR1974M,2019-06-07-12-13-25,1,40,0.5331594009698786,right,stripes-8,heavy poles sphere,left,left,1.257610858112912,0.1678682133294842
JRR1974M,2019-06-07-12-13-25,1,41,0.5029150642599708,left,stripes-4,heavy poles sphere,left,left,1.931843521211249,0.23998775905874936
JRR1974M,2019-06-07-12-13-25,1,42,0.6119135907402153,left,stripes-2,stripes-4,left,left,2.354091618593884,0.17593647399303336
JRR1974M,2019-06-07-12-13-25,1,43,0.6691118085423888,left,heavy poles sphere,heavy poles sphere,left,left,1.1607861321579094,0.16774567951688368
JRR1974M,2019-06-07-12-13-25,1,44,0.5711436032470506,right,heavy poles sphere,stripes-8,right,right,0.3956881159929253,0.15981705763965692
JRR1974M,2019-06-07-12-13-25,1,45,0.5825205475098123,right,stripes-2,stripes-2,left,left,2.93247982623825,0.1838243549325398
JRR1974M,2019-06-07-12-13-25,1,46,0.5206895809602368,right,stripes-8,stripes-8,right,right,2.3599197496826037,0.1839546637334024
JRR1974M,2019-06-07-12-13-25,1,47,0.607602840959316,left,stripes-8,stripes-4,right,right,1.1032310051598415,0.1758182941737232
JRR1974M,2019-06-07-12-13-25,2,0,0.5347197496452519,left,stripes-4,heavy poles sphere,left,left,1.0410992091592561,2.6717443559027743
JRR1974M,2019-06-07-12-13-25,2,1,0.6193742728237115,right,stripes-2,stripes-4,right,left,2.752593658284468,0.44783744925643987
JRR1974M,2019-06-07-12-13-25,2,2,0.6616306079625845,right,heavy poles sphere,heavy poles sphere,left,left,9.285737033108262,0.2718160723932215
JRR1974M,2019-06-07-12-13-25,2,3,0.5505207634427272,right,stripes-8,stripes-2,right,right,5.01798852349566,2.655794745289768
JRR1974M,2019-06-07-12-13-25,2,4,0.5888704140399317,left,stripes-4,stripes-2,right,right,9.952784052193238,0.27982057815438566
JRR1974M,2019-06-07-12-13-25,2,5,0.5041683196282732,left,stripes-2,stripes-2,right,left,1.8192732003312813,0.6959590898786701
JRR1974M,2019-06-07-12-13-25,2,6,0.614450261344392,right,stripes-2,stripes-8,right,left,1.555891124042546,0.535987465475273
JRR1974M,2019-06-07-12-13-25,2,7,0.5870844009432917,right,stripes-4,stripes-8,left,left,4.6468992258910475,0.25580768286999955
JRR1974M,2019-06-07-12-13-25,2,8,0.5948256326693562,left,heavy poles sphere,stripes-8,right,left,0.3042054288698637,0.3439328191266213
JRR1974M,2019-06-07-12-13-25,2,9,0.5482496208640313,right,heavy poles sphere,stripes-4,right,right,2.4156287835037347,0.32783330674283206
JRR1974M,2019-06-07-12-13-25,2,10,0.6884125922929607,right,stripes-8,stripes-4,left,left,1.7560127870565339,0.6959174159424037
JRR1974M,2019-06-07-12-13-25,2,11,0.6561280357765994,left,heavy poles sphere,stripes-2,right,right,0.3507962676324041,0.3037190256136455
JRR1974M,2019-06-07-12-13-25,2,12,0.6721269029803607,right,stripes-2,heavy poles sphere,right,right,0.050183505269615125,0.28783130390593215
JRR1974M,2019-06-07-12-13-25,2,13,0.5345634253766762,right,stripes-8,heavy poles sphere,right,right,2.0560405593141695,0.39971120584164055
JRR1974M,2019-06-07-12-13-25,2,14,0.5872190702062134,right,stripes-4,stripes-4,left,left,24.91524298859349,1.0636895926186298
JRR1974M,2019-06-07-12-13-25,2,15,0.5285845160571856,left,stripes-8,stripes-8,right,right,0.21659406382764246,0.2318358395230007
JRR1974M,2019-06-07-12-13-25,2,16,0.6533891815175376,right,stripes-2,stripes-8,right,right,0.7228490417637659,0.6558333092309567
JRR1974M,2019-06-07-12-13-25,2,17,0.6603072868062398,left,stripes-4,heavy poles sphere,left,left,0.9285264002833173,0.23972123246608135
JRR1974M,2019-06-07-12-13-25,2,18,0.6285324770828618,left,stripes-8,heavy poles sphere,left,left,0.4720773741935318,0.26396862139199584
JRR1974M,2019-06-07-12-13-25,2,19,0.5580257875387813,left,stripes-8,stripes-8,left,left,7.505951442400374,1.0079709178123721
JRR1974M,2019-06-07-12-13-25,2,20,0.5911912656140157,right,stripes-2,heavy poles sphere,right,right,0.24797578184484337,0.19182606169806604
JRR1974M,2019-06-07-12-13-25,2,21,0.6965720255290065,right,stripes-4,stripes-4,left,left,1.7927430748959523,0.4878120841353848
JRR1974M,2019-06-07-12-13-25,2,22,0.5087549294946455,left,heavy poles sphere,stripes-4,left,left,1.9116164231384118,0.19186929063198477
JRR1974M,2019-06-07-12-13-25,2,23,0.529622300962774,left,stripes-4,stripes-8,left,left,2.7318064500677792,0.22383724275277928
JRR1974M,2019-06-07-12-13-25,2,24,0.568201628402377,left,stripes-2,stripes-4,left,right,2.4194543886542306,0.31195740301700425
JRR1974M,2019-06-07-12-13-25,2,25,0.5027016125435341,right,heavy poles sphere,heavy poles sphere,right,right,2.6253761927998767,1.1597411737557195
JRR1974M,2019-06-07-12-13-25,2,26,0.689511738439295,left,stripes-4,stripes-2,right,right,0.042095651635690956,1.0318936232345095
JRR1974M,2019-06-07-12-13-25,2,27,0.6359653127406049,left,stripes-8,stripes-4,right,right,2.5717738697578625,1.3118743661441385
JRR1974M,2019-06-07-12-13-25,2,28,0.5987464312013163,left,heavy poles sphere,stripes-8,right,right,0.22199239357360057,4.13578021539206
JRR1974M,2019-06-07-12-13-25,2,29,0.6542042655482594,right,stripes-8,stripes-2,right,right,2.1929646309570217,0.2079535640391441
JRR1974M,2019-06-07-12-13-25,2,30,0.5699554141086245,right,heavy poles sphere,stripes-2,right,right,2.6723567139665647,0.23992618115289588
JRR1974M,2019-06-07-12-13-25,2,31,0.677786402655543,left,stripes-2,stripes-2,left,left,0.2372870391880042,0.36780638662412457
JRR1974M,2019-06-07-12-13-25,2,32,0.6806654855299401,left,heavy poles sphere,stripes-2,left,left,1.2647084892605562,0.20782885322978473
JRR1974M,2019-06-07-12-13-25,2,33,0.6581526266163948,left,stripes-4,stripes-4,right,right,0.9614693359133071,0.21582962699653763
JRR1974M,2019-06-07-12-13-25,2,34,0.5702105957853352,right,stripes-4,stripes-8,left,left,1.7539446402186059,0.24773600121147865
JRR1974M,2019-06-07-12-13-25,2,35,0.6105444885380146,left,heavy poles sphere,heavy poles sphere,left,left,2.0735355265642283,0.1997848505291131
JRR1974M,2019-06-07-12-13-25,2,36,0.6350734344713178,right,stripes-2,stripes-8,left,left,0.2345356263949725,0.21568376821960555
JRR1974M,2019-06-07-12-13-25,2,37,0.6785104454033035,right,stripes-2,stripes-4,right,right,0.595998866717764,0.23182650953731354
JRR1974M,2019-06-07-12-13-25,2,38,0.5302325567005491,right,stripes-2,stripes-2,right,right,1.1319418592609054,0.2158520189623232
JRR1974M,2019-06-07-12-13-25,2,39,0.5816526195183362,left,stripes-4,heavy poles sphere,left,left,1.190309317016954,0.20778375829877405
JRR1974M,2019-06-07-12-13-25,2,40,0.5194013325832861,right,stripes-8,heavy poles sphere,left,left,0.48060995714740784,0.2238173387831921
JRR1974M,2019-06-07-12-13-25,2,41,0.6164635560360793,right,stripes-2,heavy poles sphere,right,right,0.643347922321027,0.535952011529389
JRR1974M,2019-06-07-12-13-25,2,42,0.6881852060389235,right,stripes-8,stripes-4,right,left,0.8309649164546045,0.303841559426246
JRR1974M,2019-06-07-12-13-25,2,43,0.5088084414054125,right,stripes-8,stripes-8,right,right,0.7795828190178327,0.17567710038974838
JRR1974M,2019-06-07-12-13-25,2,44,0.595661160490334,right,stripes-4,stripes-2,right,right,0.4040272572424328,0.1518361878424912
JRR1974M,2019-06-07-12-13-25,2,45,0.5103658403551282,left,stripes-8,stripes-2,right,right,1.3683537457870898,0.43183030373143083
JRR1974M,2019-06-07-12-13-25,2,46,0.5483119124179938,left,heavy poles sphere,stripes-8,right,right,0.6016655890532547,0.1996700917045473
JRR1974M,2019-06-07-12-13-25,2,47,0.6957311310735649,right,heavy poles sphere,stripes-4,right,right,1.3575661052814212,0.19179309574815306
JRR1974M,2019-06-07-12-13-25,3,0,0.5971488035310454,right,stripes-4,stripes-4,left,left,1.7748823722049565,1.7918153633145266
JRR1974M,2019-06-07-12-13-25,3,1,0.5394894792401439,left,stripes-8,heavy poles sphere,right,right,0.25673415045321235,0.20779402128300717
JRR1974M,2019-06-07-12-13-25,3,2,0.5621234382628548,right,stripes-2,stripes-4,right,right,0.3031094665452656,0.18383088592281638
JRR1974M,2019-06-07-12-13-25,3,3,0.6901948913359015,right,stripes-2,stripes-2,right,right,0.27933137590252954,0.16780072643268795
JRR1974M,2019-06-07-12-13-25,3,4,0.610085267893623,left,stripes-2,stripes-8,right,right,0.4123946994486687,0.1437318512339516
JRR1974M,2019-06-07-12-13-25,3,5,0.6427579985749053,left,stripes-2,heavy poles sphere,right,right,0.4292250607149981,0.16780912342028387
JRR1974M,2019-06-07-12-13-25,3,6,0.5667299602921922,left,stripes-4,stripes-8,right,right,1.2459779208998043,0.19983087845866976
JRR1974M,2019-06-07-12-13-25,3,7,0.6991801967544855,right,heavy poles sphere,stripes-4,left,left,0.28023762851671563,0.19178594275945215
JRR1974M,2019-06-07-12-13-25,3,8,0.5011605635638611,right,stripes-8,stripes-2,right,right,0.4487489888624623,0.17564320144174417
JRR1974M,2019-06-07-12-13-25,3,9,0.6539301269179167,right,heavy poles sphere,stripes-2,right,right,0.4062154498965356,0.1676713506303713
JRR1974M,2019-06-07-12-13-25,3,10,0.6145447777156827,left,stripes-4,stripes-2,left,left,0.1577122128578594,2.57571081273818
JRR1974M,2019-06-07-12-13-25,3,11,0.5832615999474192,left,heavy poles sphere,stripes-8,right,right,0.12007194041007097,0.16798732614734035
JRR1974M,2019-06-07-12-13-25,3,12,0.5051479079606958,right,stripes-8,stripes-4,right,right,0.472075819195652,0.17571224333596547
JRR1974M,2019-06-07-12-13-25,3,13,0.5632912831387037,right,stripes-4,heavy poles sphere,right,right,0.048283298174737865,2.6396824819253197
JRR1974M,2019-06-07-12-13-25,3,14,0.5949457661246067,left,heavy poles sphere,heavy poles sphere,right,right,0.5001264213065042,0.15980244066213345
JRR1974M,2019-06-07-12-13-25,3,15,0.5494390500734839,left,stripes-8,stripes-8,right,right,0.49097650429712303,0.1517148980278762
JRR1974M,2019-06-07-12-13-25,3,16,0.5837876161667785,left,stripes-4,heavy poles sphere,right,right,0.10640879830089034,0.15185080482024205
JRR1974M,2019-06-07-12-13-25,3,17,0.621504449222569,right,stripes-4,stripes-4,right,right,0.07885237443497317,2.391866864835265
JRR1974M,2019-06-07-12-13-25,3,18,0.5011063068434523,right,stripes-8,stripes-2,right,right,0.39661520557501717,0.17579745720559004
JRR1974M,2019-06-07-12-13-25,3,19,0.5083852213869824,right,stripes-4,stripes-8,right,right,0.6978804449408926,0.1758226481674683
JRR1974M,2019-06-07-12-13-25,3,20,0.6265832127872161,left,stripes-2,heavy poles sphere,right,right,0.14990363679726215,0.16783804637543653
JRR1974M,2019-06-07-12-13-25,3,21,0.5060802975747131,right,stripes-2,stripes-2,left,left,0.18037288221012204,0.22383382175848965
JRR1974M,2019-06-07-12-13-25,3,22,0.6293442909945194,left,stripes-8,stripes-8,right,right,0.23472969009844746,0.1918416116741355
JRR1974M,2019-06-07-12-13-25,3,23,0.6563366981765446,right,stripes-2,stripes-8,right,right,0.7191895103592287,0.17566248341199753
JRR1974M,2019-06-07-12-13-25,3,24,0.5322386330950201,right,stripes-8,stripes-4,right,right,2.212981182351996,0.19992417831599596
JRR1974M,2019-06-07-12-13-25,3,25,0.5449274657035946,left,heavy poles sphere,heavy poles sphere,left,left,0.8792883335681836,0.19180802372557082
JRR1974M,2019-06-07-12-13-25,3,26,0.6662982050942803,left,stripes-4,stripes-2,left,left,0.7362462792793849,0.16780601342452428
JRR1974M,2019-06-07-12-13-25,3,27,0.562779500604913,right,heavy poles sphere,stripes-2,right,right,0.34891689750611476,0.1678299603877349
JRR1974M,2019-06-07-12-13-25,3,28,0.5217428261869914,left,stripes-8,heavy poles sphere,right,right,3.3238242118727612,1.359966710610479
JRR1974M,2019-06-07-12-13-25,3,29,0.5120552077994733,right,heavy poles sphere,stripes-4,right,right,0.6721141343373347,0.1838361729146527
JRR1974M,2019-06-07-12-13-25,3,30,0.698268243620806,left,stripes-2,stripes-4,right,right,1.304649225191497,0.1598559325802853
JRR1974M,2019-06-07-12-13-25,3,31,0.5075553631461844,right,heavy poles sphere,stripes-8,left,left,0.09772382558048776,1.7676777572205538
JRR1974M,2019-06-07-12-13-25,3,32,0.5127043180145713,right,heavy poles sphere,heavy poles sphere,right,right,2.539561783009958,1.5998232278702744
JRR1974M,2019-06-07-12-13-25,3,33,0.6830007804429987,right,stripes-8,heavy poles sphere,left,left,3.072061077818944,1.1838252879310858
JRR1974M,2019-06-07-12-13-25,3,34,0.6545939252235174,right,stripes-4,heavy poles sphere,right,right,0.24061722209626168,0.19201577140802328
JRR1974M,2019-06-07-12-13-25,3,35,0.5519896101218407,left,stripes-8,stripes-2,left,left,0.20006101810668042,2.4398400964846587
JRR1974M,2019-06-07-12-13-25,3,36,0.6853156035776385,right,stripes-4,stripes-2,right,right,1.0246044163800434,0.22382293677446796
JRR1974M,2019-06-07-12-13-25,3,37,0.612800019780341,left,stripes-8,stripes-8,right,right,0.1409984764136425,0.25583411782963594
JRR1974M,2019-06-07-12-13-25,3,38,0.5244716895705155,right,heavy poles sphere,stripes-4,left,left,1.040832993566255,0.1997083446462966
JRR1974M,2019-06-07-12-13-25,3,39,0.6106418319457886,left,stripes-2,stripes-8,left,left,0.3897278101062511,0.1598148806433528
JRR1974M,2019-06-07-12-13-25,3,40,0.6008941844102242,left,stripes-4,stripes-4,right,right,2.25471545254004,1.5516752144885686
JRR1974M,2019-06-07-12-13-25,3,41,0.551825612853277,left,stripes-2,stripes-2,left,left,0.2368208509010401,1.4158579901531994
JRR1974M,2019-06-07-12-13-25,3,42,0.5217834305645629,right,heavy poles sphere,stripes-8,right,right,0.013754264969520591,5.511552232836948
JRR1974M,2019-06-07-12-13-25,3,43,0.5464059500678733,left,stripes-4,stripes-8,left,left,0.31839758117030215,0.1998613564119296
JRR1974M,2019-06-07-12-13-25,3,44,0.519749864338655,left,stripes-8,stripes-4,right,right,0.0761532095621078,2.351705319242683
JRR1974M,2019-06-07-12-13-25,3,45,0.5115379334356789,right,stripes-2,stripes-4,left,left,1.403438224142974,1.8638335231985366
JRR1974M,2019-06-07-12-13-25,3,46,0.5310709142955093,left,heavy poles sphere,stripes-2,right,right,0.13834565046954594,0.30372835559956
JRR1974M,2019-06-07-12-13-25,3,47,0.5847387469978852,right,stripes-2,heavy poles sphere,left,left,0.07392272097240493,2.655821491248844
JRR1974M,2019-06-07-12-13-25,4,0,0.5147297313416511,right,stripes-4,stripes-8,right,right,0.18667373257585496,3.1839468887451403
JRR1974M,2019-06-07-12-13-25,4,1,0.506954748858935,left,stripes-8,stripes-8,left,left,2.6767480272524153,1.0238359365548604
JRR1974M,2019-06-07-12-13-25,4,2,0.6765699465099295,right,heavy poles sphere,stripes-2,right,right,3.339591576764633,0.8958559002362563
JRR1974M,2019-06-07-12-13-25,4,3,0.5699173730755902,right,stripes-4,stripes-4,right,right,0.7994186796886424,0.19180087073664254
JRR1974M,2019-06-07-12-13-25,4,4,0.6387347528911476,right,stripes-2,stripes-2,right,right,0.5252900148316257,0.17581145218446181
JRR1974M,2019-06-07-12-13-25,4,5,0.6305684068266281,right,stripes-8,heavy poles sphere,left,left,3.3039479212634433,2.327794431802431
JRR1974M,2019-06-07-12-13-25,4,6,0.6594970092355683,right,stripes-2,heavy poles sphere,right,left,0.28865327564881227,1.1118929639155795
JRR1974M,2019-06-07-12-13-25,4,7,0.5782034860864422,right,stripes-2,stripes-4,left,left,0.15216118234593523,3.0158541337591487
JRR1974M,2019-06-07-12-13-25,4,8,0.5827644823580329,right,heavy poles sphere,stripes-4,right,right,0.09697835972019675,0.23184890150287174
JRR1974M,2019-06-07-12-13-25,4,9,0.6975901970666811,right,stripes-4,stripes-2,left,left,1.8872738683580792,1.9678040852272716
JRR1974M,2019-06-07-12-13-25,4,10,0.6333565992127144,right,stripes-4,heavy poles sphere,right,left,0.06546042391119045,3.3757365634987764
JRR1974M,2019-06-07-12-13-25,4,11,0.6592831151323524,right,stripes-8,stripes-4,left,left,1.2585559856679538,0.3118143432357101
JRR1974M,2019-06-07-12-13-25,4,12,0.58796113598164,right,stripes-8,stripes-2,right,right,0.12277421527824117,2.431829370732885
JRR1974M,2019-06-07-12-13-25,4,13,0.5349252300778864,left,stripes-2,stripes-8,left,left,0.8606097021279311,0.21592448185128887
JRR1974M,2019-06-07-12-13-25,4,14,0.6507368093077949,left,heavy poles sphere,heavy poles sphere,right,right,0.9924529745394466,1.767781942061447
JRR1974M,2019-06-07-12-13-25,4,15,0.5170823580738284,right,heavy poles sphere,stripes-8,right,right,3.579464265998922,0.9038066030798291
JRR1974M,2019-06-07-12-13-25,4,16,0.666649374267484,right,stripes-2,stripes-2,right,right,1.001760879307767,0.3597881968839829
JRR1974M,2019-06-07-12-13-25,4,17,0.5814457085522442,right,heavy poles sphere,stripes-8,right,right,0.5800218881463479,0.19188857260269288
JRR1974M,2019-06-07-12-13-25,4,18,0.5372546595912271,left,stripes-4,heavy poles sphere,right,right,0.7036382901369507,0.4957105390585639
JRR1974M,2019-06-07-12-13-25,4,19,0.6131541789835078,left,stripes-2,heavy poles sphere,left,left,0.7432213766142013,0.22381702778375256
JRR1974M,2019-06-07-12-13-25,4,20,0.5916177296002207,left,stripes-8,stripes-2,left,left,0.38308952525630957,0.19997922523180023
JRR1974M,2019-06-07-12-13-25,4,21,0.5302723143549365,left,stripes-4,stripes-8,right,right,2.3701612750237473,0.655729124390291
JRR1974M,2019-06-07-12-13-25,4,22,0.643980320357182,left,stripes-8,stripes-8,right,right,0.12486599808016763,2.439968539288202
JRR1974M,2019-06-07-12-13-25,4,23,0.5749508486743408,left,stripes-2,stripes-8,left,left,7.228548885548662,0.4959696016626367
JRR1974M,2019-06-07-12-13-25,4,24,0.5837586494382276,right,heavy poles sphere,stripes-4,left,left,0.3151327081618547,0.2718126513982497
JRR1974M,2019-06-07-12-13-25,4,25,0.5364385517362789,left,stripes-8,stripes-4,right,right,0.6206247420645923,0.19981221848684072
JRR1974M,2019-06-07-12-13-25,4,26,0.6425495488951045,left,heavy poles sphere,heavy poles sphere,left,left,0.13131799421489632,2.999827706263659
JRR1974M,2019-06-07-12-13-25,4,27,0.5330305827979984,left,stripes-2,stripes-4,right,right,0.22163536611924428,0.18366387917785687
JRR1974M,2019-06-07-12-13-25,4,28,0.5000080768825012,left,heavy poles sphere,stripes-2,left,left,2.6172059242921932,0.2078702161666115
JRR1974M,2019-06-07-12-13-25,4,29,0.6714842488283138,left,stripes-8,heavy poles sphere,right,right,0.6043333429743143,1.4237349861091388
JRR1974M,2019-06-07-12-13-25,4,30,0.6595577892526635,right,stripes-4,stripes-2,right,right,0.07909837505849282,0.8399982086425553
JRR1974M,2019-06-07-12-13-25,4,31,0.5172869623606962,left,stripes-4,stripes-4,left,left,0.9491391377659966,1.2637400367416376
JRR1974M,2019-06-07-12-13-25,4,32,0.650064892387936,right,stripes-8,stripes-2,right,right,2.312034530899382,1.5998602368135835
JRR1974M,2019-06-07-12-13-25,4,33,0.5260736648556875,right,stripes-8,heavy poles sphere,right,right,4.652081410967185,0.7038538128076652
JRR1974M,2019-06-07-12-13-25,4,34,0.6902847188796922,left,stripes-2,stripes-4,right,right,0.1977051967087391,0.48796105290739433
JRR1974M,2019-06-07-12-13-25,4,35,0.5327977748071135,right,stripes-8,stripes-4,left,left,0.6286031238655596,0.20796755901756114
JRR1974M,2019-06-07-12-13-25,4,36,0.5076334685523989,left,stripes-2,heavy poles sphere,right,right,2.8393926925687083,1.2557134500143547
JRR1974M,2019-06-07-12-13-25,4,37,0.6890668658407537,left,stripes-8,stripes-8,left,left,3.508438816596936,1.295835498667202
JRR1974M,2019-06-07-12-13-25,4,38,0.5545503958928738,right,stripes-2,stripes-2,right,right,0.5859414530955291,0.2318349065244547
JRR1974M,2019-06-07-12-13-25,4,39,0.5767136421429926,right,heavy poles sphere,stripes-2,left,left,2.0585696074467705,1.207837250216926
JRR1974M,2019-06-07-12-13-25,4,40,0.6779634305999953,left,heavy poles sphere,stripes-4,right,right,0.16338888717837108,0.19971767463175638
JRR1974M,2019-06-07-12-13-25,4,41,0.6348669103313325,right,stripes-4,stripes-2,left,left,1.2908884292314724,0.22387145270022302
JRR1974M,2019-06-07-12-13-25,4,42,0.6994355113407771,right,stripes-4,stripes-4,right,right,1.0649609586748738,0.22384874973522528
JRR1974M,2019-06-07-12-13-25,4,43,0.586010655896981,right,stripes-2,stripes-8,right,right,1.3326233214188505,0.23193940236433264
JRR1974M,2019-06-07-12-13-25,4,44,0.5398362084414693,right,stripes-4,heavy poles sphere,left,left,1.0960472271440267,0.21584268897686343
JRR1974M,2019-06-07-12-13-25,4,45,0.6199377362358031,right,heavy poles sphere,heavy poles sphere,right,right,0.5558426081165635,0.19180677972735793
JRR1974M,2019-06-07-12-13-25,4,46,0.6252994503143978,left,stripes-4,stripes-8,right,right,0.4277820229212921,0.1838361729146527
JRR1974M,2019-06-07-12-13-25,4,47,0.556995695600266,left,heavy poles sphere,stripes-8,left,left,0.581342392127226,0.21581749801498518
JRR1974M,2019-06-07-12-13-25,5,0,0.6087561471457136,right,stripes-2,stripes-4,right,right,0.642835395104612,0.17578781622069073
JRR1974M,2019-06-07-12-13-25,5,1,0.5411730828478548,right,stripes-4,stripes-4,left,left,0.22755057707490778,0.18380756095803008
JRR1974M,2019-06-07-12-13-25,5,2,0.6147352325751737,left,stripes-8,heavy poles sphere,right,right,2.107333399887011,0.9116776900450532
JRR1974M,2019-06-07-12-13-25,5,3,0.6744568795924586,right,stripes-2,heavy poles sphere,left,left,0.2700853600395021,1.055842452617071
JRR1974M,2019-06-07-12-13-25,5,4,0.5500696242527952,right,stripes-8,stripes-8,right,right,1.4897029612438928,0.15181130788050723
JRR1974M,2019-06-07-12-13-25,5,5,0.6303285481503031,left,heavy poles sphere,stripes-2,left,left,0.11034885127628513,2.559861654971428
JRR1974M,2019-06-07-12-13-25,5,6,0.679887114722376,left,stripes-8,stripes-4,right,right,0.13422615076797229,0.16770773757480129
JRR1974M,2019-06-07-12-13-25,5,7,0.5244494332723314,right,heavy poles sphere,stripes-4,left,left,0.2852994567770111,0.19183072669056855
JRR1974M,2019-06-07-12-13-25,5,8,0.6522349184536271,left,heavy poles sphere,stripes-8,right,right,0.665060976121822,0.18368222814979163
JRR1974M,2019-06-07-12-13-25,5,9,0.6820925042225248,right,stripes-4,heavy poles sphere,right,right,0.14833153420113376,0.16771644556183674
JRR1974M,2019-06-07-12-13-25,5,10,0.59835267991921,left,stripes-2,stripes-8,right,right,0.023471134112696745,2.4236786951955764
JRR1974M,2019-06-07-12-13-25,5,11,0.5410052638742904,left,heavy poles sphere,heavy poles sphere,left,left,0.688072763936816,0.2078195232438702
JRR1974M,2019-06-07-12-13-25,5,12,0.5268130402460249,left,stripes-4,stripes-2,right,right,1.9980363490021773,1.3678144726118262
JRR1974M,2019-06-07-12-13-25,5,13,0.538664397229776,right,stripes-8,stripes-2,left,left,0.03938964477310947,0.20782605423391942
JRR1974M,2019-06-07-12-13-25,5,14,0.6677643189649337,right,stripes-2,stripes-2,left,left,0.8498049566483132,0.799817381079265
JRR1974M,2019-06-07-12-13-25,5,15,0.5556696452094204,left,stripes-4,stripes-8,left,left,0.07998845569773039,1.7516802526811261
JRR1974M,2019-06-07-12-13-25,5,16,0.6001249402450006,left,stripes-4,heavy poles sphere,right,right,1.6456651797780069,1.3677986116358625
JRR1974M,2019-06-07-12-13-25,5,17,0.5313522512247927,left,heavy poles sphere,stripes-4,right,right,2.1906713204639345,0.6398460676755349
JRR1974M,2019-06-07-12-13-25,5,18,0.6204953328106527,right,stripes-8,stripes-2,right,right,0.07437460328083034,1.1518899907600826
JRR1974M,2019-06-07-12-13-25,5,19,0.6716843242762631,right,stripes-8,heavy poles sphere,left,left,3.0465037588960513,3.119899024674396
JRR1974M,2019-06-07-12-13-25,5,20,0.5370137252977081,right,heavy poles sphere,stripes-8,right,right,2.8942598506764625,2.327644530031648
JRR1974M,2019-06-07-12-13-25,5,21,0.6529254302031355,right,stripes-4,stripes-2,left,left,0.15782355068813558,0.22382853476619857
JRR1974M,2019-06-07-12-13-25,5,22,0.5460536507100198,right,stripes-8,stripes-4,right,right,0.07235714936587101,5.10357341563622
JRR1974M,2019-06-07-12-13-25,5,23,0.5857902875282592,right,stripes-2,stripes-4,right,right,0.7253734249043191,0.6718662677167231
JRR1974M,2019-06-07-12-13-25,5,24,0.5475054920109526,left,stripes-2,stripes-2,left,left,0.4782354757776375,0.21580692403131252
JRR1974M,2019-06-07-12-13-25,5,25,0.6581449963859431,left,stripes-4,stripes-4,right,right,3.2622976209468106,0.9357216852813508
JRR1974M,2019-06-07-12-13-25,5,26,0.6286301114735267,left,stripes-2,stripes-8,right,right,0.5615410524037543,0.2077224913923601
JRR1974M,2019-06-07-12-13-25,5,27,0.5056383108647389,left,stripes-8,stripes-8,right,right,0.17357660960124122,2.2477963351198014
JRR1974M,2019-06-07-12-13-25,5,28,0.6030563707792657,right,stripes-4,stripes-8,right,right,0.0023766583663018537,0.22384999373343817
JRR1974M,2019-06-07-12-13-25,5,29,0.6077615023500936,right,heavy poles sphere,stripes-2,left,right,0.22540312535875273,2.967811549216094
JRR1974M,2019-06-07-12-13-25,5,30,0.5235488836114105,right,stripes-2,heavy poles sphere,right,right,1.434836114135578,0.5518568382108242
JRR1974M,2019-06-07-12-13-25,5,31,0.5479780199939519,right,heavy poles sphere,heavy poles sphere,right,left,1.022032139313069,0.16783120438594779
JRR1974M,2019-06-07-12-13-25,5,32,0.5727326555762507,left,heavy poles sphere,stripes-4,right,right,0.41592983104328596,0.18368627114341507
JRR1974M,2019-06-07-12-13-25,5,33,0.5304532176228455,left,stripes-4,stripes-2,right,right,0.19336737534149506,0.19986757640253927
JRR1974M,2019-06-07-12-13-25,5,34,0.6344224124491417,left,stripes-2,stripes-2,left,left,0.639671285942768,0.2078440922059599
JRR1974M,2019-06-07-12-13-25,5,35,0.6510343386971245,right,stripes-8,stripes-8,right,left,0.6270092513027521,0.1998311894581093
JRR1974M,2019-06-07-12-13-25,5,36,0.5520606088029428,left,stripes-4,stripes-8,right,left,0.1792022800000268,0.18367227616545279
JRR1974M,2019-06-07-12-13-25,5,37,0.5484999642135029,right,heavy poles sphere,heavy poles sphere,left,right,0.1768993285209035,0.3758214663689614
JRR1974M,2019-06-07-12-13-25,5,38,0.5914044904149798,left,stripes-8,heavy poles sphere,right,right,1.8750907729863684,1.8558221754478836
JRR1974M,2019-06-07-12-13-25,5,39,0.6541833711761591,left,stripes-4,stripes-4,left,left,1.4806519420831137,2.351927372902992
JRR1974M,2019-06-07-12-13-25,5,40,0.5325563546620988,right,stripes-2,heavy poles sphere,right,right,1.5282280273395372,0.3038683053855493
JRR1974M,2019-06-07-12-13-25,5,41,0.674567970509708,left,stripes-8,stripes-2,left,right,0.6580488698432418,1.3438040653236385
JRR1974M,2019-06-07-12-13-25,5,42,0.599672448149207,right,heavy poles sphere,stripes-2,right,right,0.9611853933474777,1.2716882515887846
JRR1974M,2019-06-07-12-13-25,5,43,0.5191141379725956,right,stripes-8,stripes-4,right,left,2.281142637132689,0.7358758788459454
JRR1974M,2019-06-07-12-13-25,5,44,0.6631845306199711,left,stripes-2,stripes-4,right,right,0.09960972669659895,0.16779201844610725
JRR1974M,2019-06-07-12-13-25,5,45,0.5374768633437741,right,stripes-4,heavy poles sphere,right,right,0.29200367352632384,0.18381657994450507
JRR1974M,2019-06-07-12-13-25,5,46,0.5491108173053693,left,heavy poles sphere,stripes-8,right,right,0.2357895764780551,0.15191735871849232
JRR1974M,2019-06-07-12-13-25,5,47,0.5897055123727557,left,stripes-2,stripes-8,right,right,1.2440851777937496,0.23983288129511493
JRR1974M,2019-06-07-12-13-25,6,0,0.6268988943590041,left,stripes-4,stripes-4,right,right,1.7461671641108296,1.6078274226315443
JRR1974M,2019-06-07-12-13-25,6,1,0.6610575857393471,left,stripes-8,stripes-4,left,left,0.2387387849685183,0.1998327444557617
JRR1974M,2019-06-07-12-13-25,6,2,0.5130949364755305,right,stripes-8,stripes-8,left,right,0.6884092654222513,0.27997172392315406
JRR1974M,2019-06-07-12-13-25,6,3,0.5688982126613192,left,stripes-8,heavy poles sphere,left,left,0.37909193736868474,0.2398353692915407
JRR1974M,2019-06-07-12-13-25,6,4,0.5014642009468612,right,stripes-2,heavy poles sphere,right,right,0.030834669853902597,4.76771352216565
JRR1974M,2019-06-07-12-13-25,6,5,0.5315488409892903,right,stripes-4,stripes-2,right,right,0.37340717706047144,0.18383959390939708
JRR1974M,2019-06-07-12-13-25,6,6,0.5187590081041124,left,heavy poles sphere,heavy poles sphere,right,right,0.5004545258052531,0.2158031920371286
JRR1974M,2019-06-07-12-13-25,6,7,0.5845794619232078,left,stripes-4,stripes-8,left,left,0.10313770530228794,0.19181859770924348
JRR1974M,2019-06-07-12-13-25,6,8,0.5999241141574079,right,stripes-4,heavy poles sphere,left,left,0.2925417027036019,0.19968315368441836
JRR1974M,2019-06-07-12-13-25,6,9,0.5306271647539574,right,stripes-8,stripes-2,right,right,0.9621594438581269,0.18371519409947723
JRR1974M,2019-06-07-12-13-25,6,10,0.6357688313389408,left,stripes-2,stripes-8,left,left,2.929653773559494,0.6958648570225705
JRR1974M,2019-06-07-12-13-25,6,11,0.6415976243410083,right,heavy poles sphere,stripes-4,right,right,4.956762047110715,0.7997968551107988
JRR1974M,2019-06-07-12-13-25,6,12,0.5720673906559953,right,stripes-2,stripes-4,right,right,0.7466467253771043,0.23984469927745522
JRR1974M,2019-06-07-12-13-25,6,13,0.5350740120292016,right,stripes-2,stripes-2,left,left,0.4526218659411825,0.1999440822851284
JRR1974M,2019-06-07-12-13-25,6,14,0.5529981273979961,left,heavy poles sphere,stripes-8,left,left,0.10871485977486373,0.9438347298769258
JRR1974M,2019-06-07-12-13-25,6,15,0.6803985520996431,right,heavy poles sphere,stripes-2,right,right,0.055254663515825087,2.9517692607446406
JRR1974M,2019-06-07-12-13-25,6,16,0.5007368971340155,right,heavy poles sphere,stripes-8,left,left,1.064847443848521,1.063979444175402
JRR1974M,2019-06-07-12-13-25,6,17,0.5024027296332721,left,stripes-8,heavy poles sphere,right,right,0.071325874942886,3.31176893730526
JRR1974M,2019-06-07-12-13-25,6,18,0.6352551501675625,left,stripes-2,heavy poles sphere,left,right,0.12441815876445617,1.2638815415252793
JRR1974M,2019-06-07-12-13-25,6,19,0.6954122899192263,left,stripes-4,stripes-8,right,right,0.11994940659769782,3.8238651083102013
JRR1974M,2019-06-07-12-13-25,6,20,0.5454975421862016,right,stripes-4,heavy poles sphere,right,right,0.17808485870818913,0.19984860543172545
JRR1974M,2019-06-07-12-13-25,6,21,0.6664469370422736,right,heavy poles sphere,heavy poles sphere,right,right,5.049721981974926,0.19183787967995158
JRR1974M,2019-06-07-12-13-25,6,22,0.5124925717558348,right,stripes-8,stripes-8,right,right,2.3434311768937732,0.19186649163611946
JRR1974M,2019-06-07-12-13-25,6,23,0.6666673970709903,left,stripes-4,stripes-4,right,right,6.125300775414871,1.2237112879456618
JRR1974M,2019-06-07-12-13-25,6,24,0.5923468311286995,right,stripes-2,stripes-2,right,right,0.7779133735702999,0.18394097975442492
JRR1974M,2019-06-07-12-13-25,6,25,0.6463738080698811,right,heavy poles sphere,stripes-4,right,right,1.7537773224744342,0.19183134868990237
JRR1974M,2019-06-07-12-13-25,6,26,0.5224498148953641,right,stripes-2,stripes-8,right,right,0.6929318205070558,0.19189572559162116
JRR1974M,2019-06-07-12-13-25,6,27,0.5155615951891103,right,stripes-4,stripes-2,right,right,0.026996935721854243,0.1918397456765888
JRR1974M,2019-06-07-12-13-25,6,28,0.6133387931557824,left,stripes-8,stripes-4,right,right,2.4894233726718085,0.8638506281722584
JRR1974M,2019-06-07-12-13-25,6,29,0.585964203899819,right,stripes-8,stripes-2,right,right,0.032754780917912285,3.951756198764997
JRR1974M,2019-06-07-12-13-25,6,30,0.5948186381666059,right,stripes-2,stripes-4,right,right,0.8542233268926793,0.1837378970649297
JRR1974M,2019-06-07-12-13-25,6,31,0.6246972199647541,left,heavy poles sphere,stripes-2,right,right,1.1399292600481203,0.17587551808628632
JRR1974M,2019-06-07-12-13-25,6,32,0.5457221505164019,right,stripes-4,stripes-4,right,right,0.7356006442664693,0.183843325903581
JRR1974M,2019-06-07-12-13-25,6,33,0.5014890307040175,right,stripes-2,heavy poles sphere,right,right,0.7269315325220305,0.15180602088821615
JRR1974M,2019-06-07-12-13-25,6,34,0.537608202152401,right,stripes-8,stripes-8,right,right,0.013701395050702558,0.167991058141979
JRR1974M,2019-06-07-12-13-25,6,35,0.5233041464801537,right,stripes-4,stripes-8,right,right,0.37692084968830386,0.20000348319490513
JRR1974M,2019-06-07-12-13-25,6,36,0.6230889988696345,left,stripes-8,stripes-2,right,right,1.2717908814315706,0.5758541835189135
JRR1974M,2019-06-07-12-13-25,6,37,0.6790414120233342,right,heavy poles sphere,stripes-4,right,right,1.2416177075665473,0.16770493857939073
JRR1974M,2019-06-07-12-13-25,6,38,0.6798725454908916,right,stripes-8,stripes-4,right,right,1.5083150387863498,0.1438263950894907
JRR1974M,2019-06-07-12-13-25,6,39,0.6832780005096953,left,stripes-2,stripes-2,left,left,0.05373636383728808,0.2077047644193044
JRR1974M,2019-06-07-12-13-25,6,40,0.6925633121638474,right,stripes-2,stripes-8,right,right,2.9745816978643234,0.639856330659768
JRR1974M,2019-06-07-12-13-25,6,41,0.6300415860861601,right,stripes-2,stripes-4,right,right,0.5049705499000083,0.18395466373294767
JRR1974M,2019-06-07-12-13-25,6,42,0.5210902064788991,right,heavy poles sphere,stripes-2,right,right,0.12122294965001856,0.18381502494685265
JRR1974M,2019-06-07-12-13-25,6,43,0.6560855722197678,right,stripes-4,heavy poles sphere,right,right,0.571763606773402,0.17570353534938477
JRR1974M,2019-06-07-12-13-25,6,44,0.5366259630050286,left,heavy poles sphere,heavy poles sphere,right,right,0.3298501386593671,0.18395373073462906
JRR1974M,2019-06-07-12-13-25,6,45,0.6606104151054076,left,heavy poles sphere,stripes-8,right,right,0.9793763775337538,0.19183445868475246
JRR1974M,2019-06-07-12-13-25,6,46,0.5486439417560798,right,stripes-8,heavy poles sphere,right,right,1.317830629036962,0.1918316596893419
JRR1974M,2019-06-07-12-13-25,6,47,0.6149665382722738,left,stripes-4,stripes-2,right,right,0.5113581691330182,0.17576418025691964
JRR1974M,2019-06-07-12-13-25,7,0,0.6379865331397452,right,heavy poles sphere,stripes-4,right,right,2.3307047653524933,0.8477197048368907
JRR1974M,2019-06-07-12-13-25,7,1,0.6715430324951518,right,heavy poles sphere,heavy poles sphere,right,right,0.07196591196407098,2.063966693194743
JRR1974M,2019-06-07-12-13-25,7,2,0.5624862914947981,right,stripes-8,heavy poles sphere,right,right,0.13175370454882795,0.9598813723414423
JRR1974M,2019-06-07-12-13-25,7,3,0.6157540232717912,right,stripes-4,stripes-8,right,right,0.01406339849700089,2.199981091228892
JRR1974M,2019-06-07-12-13-25,7,4,0.5017182854362422,right,stripes-4,stripes-4,right,right,0.6069712409412205,0.17598156892427141
JRR1974M,2019-06-07-12-13-25,7,5,0.6463565780286183,left,stripes-2,stripes-2,left,left,0.13295633970983545,2.359892692723861
JRR1974M,2019-06-07-12-13-25,7,6,0.5911288814752524,right,stripes-2,stripes-4,right,right,0.7597733933066593,0.16767788162087527
JRR1974M,2019-06-07-12-13-25,7,7,0.6727166808463885,left,heavy poles sphere,stripes-8,right,right,0.09563764076983716,2.343724760445184
JRR1974M,2019-06-07-12-13-25,7,8,0.5510006644749113,right,stripes-2,heavy poles sphere,right,right,0.23891760969536335,0.1598422486013078
JRR1974M,2019-06-07-12-13-25,7,9,0.6287336165397532,left,stripes-8,stripes-4,right,right,0.581278015225962,0.15983074161840705
JRR1974M,2019-06-07-12-13-25,7,10,0.688572362249838,left,stripes-4,stripes-2,right,right,1.5312559187100305,0.20792246408655046
JRR1974M,2019-06-07-12-13-25,7,11,0.6360784633952837,right,stripes-4,heavy poles sphere,right,right,4.203791768402425,1.9919155673610476
JRR1974M,2019-06-07-12-13-25,7,12,0.5475556908419933,left,stripes-8,stripes-8,right,right,2.224709596419416,2.1437766351655227
JRR1974M,2019-06-07-12-13-25,7,13,0.6689620437686387,right,stripes-2,stripes-8,right,right,0.12366429591747874,3.543908623363677
JRR1974M,2019-06-07-12-13-25,7,14,0.5725615265701226,right,heavy poles sphere,stripes-2,left,left,0.22410252534746178,0.21581998601141095
JRR1974M,2019-06-07-12-13-25,7,15,0.5892882631600255,left,stripes-8,stripes-2,right,right,2.253839055880235,1.135718015486873
JRR1974M,2019-06-07-12-13-25,7,16,0.6731159988305682,right,heavy poles sphere,stripes-2,left,left,0.28161317941339803,0.21583584698691993
JRR1974M,2019-06-07-12-13-25,7,17,0.6800845133089376,right,stripes-4,stripes-8,right,right,2.5057558236994737,1.1999117383352313
JRR1974M,2019-06-07-12-13-25,7,18,0.5088044014144854,right,stripes-8,stripes-4,right,right,0.21429142334818607,0.18370493111478936
JRR1974M,2019-06-07-12-13-25,7,19,0.6765632358852407,left,stripes-4,stripes-2,left,right,0.4026321133756028,1.839705247090933
JRR1974M,2019-06-07-12-13-25,7,20,0.5757421150417428,right,stripes-8,heavy poles sphere,right,right,0.7846670392436863,0.47983028133921835
JRR1974M,2019-06-07-12-13-25,7,21,0.5747099602872181,right,stripes-8,stripes-8,right,right,0.44566169658310173,0.19192744754263913
JRR1974M,2019-06-07-12-13-25,7,22,0.6619888953893032,right,stripes-2,stripes-2,right,right,0.8011288660736682,0.1678231183987009
JRR1974M,2019-06-07-12-13-25,7,23,0.6609464984228237,right,stripes-8,stripes-2,right,right,0.09499511575268116,0.1918453436683194
JRR1974M,2019-06-07-12-13-25,7,24,0.6484936059937662,right,heavy poles sphere,stripes-4,left,left,0.8900542041069457,0.20784253720876222
JRR1974M,2019-06-07-12-13-25,7,25,0.5834670507419263,right,heavy poles sphere,heavy poles sphere,right,right,0.047940887698587176,0.1839926056754848
JRR1974M,2019-06-07-12-13-25,7,26,0.5989424394948535,left,stripes-4,stripes-4,right,right,2.8383922070984227,1.6878245863163102
JRR1974M,2019-06-07-12-13-25,7,27,0.5485673358838845,left,heavy poles sphere,stripes-8,left,left,2.448027780965731,0.7118474335852625
JRR1974M,2019-06-07-12-13-25,7,28,0.6466282286164433,right,stripes-2,stripes-4,right,right,3.476800523972088,1.0238281615665983
JRR1974M,2019-06-07-12-13-25,7,29,0.6868158330536254,right,stripes-2,heavy poles sphere,right,right,0.24234980044730037,0.18382093393756804
JRR1974M,2019-06-07-12-13-25,7,30,0.5781578521687288,left,stripes-2,stripes-8,right,right,0.8093837264523245,0.23181282555833604
JRR1974M,2019-06-07-12-13-25,7,31,0.6846536548902992,right,stripes-4,heavy poles sphere,right,right,0.5317830629037417,3.0317676684271646
JRR1974M,2019-06-07-12-13-25,7,32,0.5632833888172822,right,heavy poles sphere,heavy poles sphere,left,left,1.3975581561335275,0.23982790530317288
JRR1974M,2019-06-07-12-13-25,7,33,0.518403878758465,right,heavy poles sphere,stripes-4,right,right,2.9669161815850202,1.4078786753534587
JRR1974M,2019-06-07-12-13-25,7,34,0.5639429168712495,left,stripes-4,heavy poles sphere,right,right,1.4947716314945865,0.9198504465484802
JRR1974M,2019-06-07-12-13-25,7,35,0.6552624071439147,right,stripes-8,stripes-2,left,left,1.6500801290276286,0.21580847902896494
JRR1974M,2019-06-07-12-13-25,7,36,0.679117908092085,right,heavy poles sphere,stripes-2,right,left,0.8438648657306658,0.34385040425286206
JRR1974M,2019-06-07-12-13-25,7,37,0.6052073543242444,right,stripes-4,stripes-8,left,left,0.4896693732953281,0.20768143945497286
JRR1974M,2019-06-07-12-13-25,7,38,0.66687548391268,left,stripes-8,stripes-4,right,right,0.09029031494628725,0.1598431815996264
JRR1974M,2019-06-07-12-13-25,7,39,0.5272108013224763,right,stripes-8,stripes-8,right,right,3.8268289337784154,1.719695817585034
JRR1974M,2019-06-07-12-13-25,7,40,0.6408171504960352,right,stripes-2,heavy poles sphere,right,right,0.7196578756429517,0.17574583128453014
JRR1974M,2019-06-07-12-13-25,7,41,0.5603326879855489,right,stripes-4,stripes-4,left,right,0.2841950974657266,0.5758582265125369
JRR1974M,2019-06-07-12-13-25,7,42,0.5017974627315345,right,stripes-2,stripes-2,right,right,0.5570763432301646,1.031706712520645
JRR1974M,2019-06-07-12-13-25,7,43,0.5182818987114847,right,stripes-8,heavy poles sphere,right,right,0.2963750828425873,0.8158693105360726
JRR1974M,2019-06-07-12-13-25,7,44,0.5283016107662758,right,stripes-2,stripes-4,right,right,0.26171418583908235,0.15982825362243602
JRR1974M,2019-06-07-12-13-25,7,45,0.5393890579733195,left,stripes-2,stripes-8,right,right,3.1985949663480824,1.6398009727445242
JRR1974M,2019-06-07-12-13-25,7,46,0.5384250178491236,left,stripes-4,stripes-2,left,left,0.1634887180257465,2.7036802750731113
JRR1974M,2019-06-07-12-13-25,7,47,0.6386923701617343,right,heavy poles sphere,stripes-8,right,right,4.4695374410771365,0.5839563431304668
JRR1974M,2019-06-07-12-13-25,8,0,0.6231785908139029,left,stripes-8,stripes-8,right,right,2.3428875497252193,0.2397821883728284
JRR1974M,2019-06-07-12-13-25,8,1,0.6141264033299758,right,stripes-4,heavy poles sphere,right,right,0.7100983722598357,2.119815365802424
JRR1974M,2019-06-07-12-13-25,8,2,0.5411417675821408,left,stripes-8,stripes-2,left,left,0.18048577503714114,1.0558272136399864
JRR1974M,2019-06-07-12-13-25,8,3,0.6218645506686983,left,stripes-4,stripes-4,left,left,1.0408040706106476,1.1759181250208712
JRR1974M,2019-06-07-12-13-25,8,4,0.5145735666990595,left,heavy poles sphere,stripes-8,right,right,0.8031139760387305,1.3038173014633685
JRR1974M,2019-06-07-12-13-25,8,5,0.6713489037264408,right,heavy poles sphere,stripes-4,right,right,1.7531941983661454,0.5438389594701221
JRR1974M,2019-06-07-12-13-25,8,6,0.5539649209031525,right,stripes-8,heavy poles sphere,right,right,0.16545299102244826,0.7998111610891101
JRR1974M,2019-06-07-12-13-25,8,7,0.5517951752528272,left,heavy poles sphere,stripes-2,left,left,1.904678956746011,1.1198436667591523
JRR1974M,2019-06-07-12-13-25,8,8,0.6899135564580481,right,stripes-2,stripes-4,right,right,0.1536356310912197,0.29571265385538936
JRR1974M,2019-06-07-12-13-25,8,9,0.6833190508205873,left,stripes-2,heavy poles sphere,left,left,3.5003186190124325,1.2958252356834237
JRR1974M,2019-06-07-12-13-25,8,10,0.636863066750832,left,stripes-8,stripes-4,left,left,3.998957218594569,0.5758604035095232
JRR1974M,2019-06-07-12-13-25,8,11,0.6178681017868377,left,stripes-4,stripes-2,left,right,0.40337229224405746,0.30373861858379314
JRR1974M,2019-06-07-12-13-25,8,12,0.5079840290243663,right,heavy poles sphere,heavy poles sphere,right,right,2.052168926233662,1.039813226125716
JRR1974M,2019-06-07-12-13-25,8,13,0.5277983042757054,right,stripes-2,stripes-2,right,right,0.6810367106950252,1.7278197471637213
JRR1974M,2019-06-07-12-13-25,8,14,0.5598876165903437,left,stripes-4,stripes-8,left,left,0.16837296555786452,0.8558790883607799
JRR1974M,2019-06-07-12-13-25,8,15,0.6843716967477077,right,stripes-2,stripes-8,left,right,0.3788757926990911,0.9278518423143396
JRR1974M,2019-06-07-12-13-25,8,16,0.5324760241303853,left,stripes-8,heavy poles sphere,left,left,0.9212207104537811,1.7277998431941342
JRR1974M,2019-06-07-12-13-25,8,17,0.5488680708604419,right,heavy poles sphere,heavy poles sphere,right,right,1.6892819300878728,1.8396850321214515
JRR1974M,2019-06-07-12-13-25,8,18,0.6503198495177293,left,stripes-8,stripes-4,left,right,0.06283869791968755,1.095848187448155
JRR1974M,2019-06-07-12-13-25,8,19,0.5737984585813662,right,heavy poles sphere,stripes-8,left,left,0.06530492414867695,1.031832356328323
JRR1974M,2019-06-07-12-13-25,8,20,0.6480910179441788,right,stripes-2,heavy poles sphere,right,right,0.2518265779572175,2.127716930720908
JRR1974M,2019-06-07-12-13-25,8,21,0.6904839173220051,left,stripes-4,stripes-2,right,right,0.014128708397493028,1.4238279749670255
JRR1974M,2019-06-07-12-13-25,8,22,0.5778648535195882,left,stripes-2,stripes-8,left,left,0.10939843672986171,0.23166572278341846
JRR1974M,2019-06-07-12-13-25,8,23,0.5825150063934584,right,stripes-8,stripes-8,left,left,1.2478084641006717,1.303716848617114
JRR1974M,2019-06-07-12-13-25,8,24,0.606790471661533,left,stripes-8,stripes-2,left,left,0.07086124165334695,1.2238571467223665
JRR1974M,2019-06-07-12-13-25,8,25,0.6416457072097203,left,stripes-2,stripes-4,left,left,0.19261071349819758,0.8077758589106452
JRR1974M,2019-06-07-12-13-25,8,26,0.5329839615143723,left,stripes-4,stripes-8,left,left,0.07438828726026259,0.24782152608077013
JRR1974M,2019-06-07-12-13-25,8,27,0.573441508695219,left,heavy poles sphere,stripes-2,left,left,0.24672183176198814,1.7198478963528032
JRR1974M,2019-06-07-12-13-25,8,28,0.6023102082926959,left,stripes-2,stripes-2,right,right,0.7666657647682769,0.2157947950495327
JRR1974M,2019-06-07-12-13-25,8,29,0.595110530134189,right,heavy poles sphere,stripes-4,left,left,0.23188684344495414,0.8718594879269403
JRR1974M,2019-06-07-12-13-25,8,30,0.5922460971381274,right,stripes-4,heavy poles sphere,left,left,0.4763079007248052,0.23183739452088048
JRR1974M,2019-06-07-12-13-25,8,31,0.6842906985557143,right,stripes-4,stripes-4,right,right,0.5477189895373158,0.21583646898625375
JRR1974M,2019-06-07-12-13-25,8,32,0.681515456442043,right,heavy poles sphere,heavy poles sphere,right,right,1.163203842461371,0.1836980891253006
JRR1974M,2019-06-07-12-13-25,8,33,0.6283828501857827,right,stripes-2,stripes-8,left,left,0.8099376166051115,0.27982648714532843
JRR1974M,2019-06-07-12-13-25,8,34,0.5685739433054113,right,stripes-4,stripes-8,right,right,0.04649784990488115,2.9679082700681647
JRR1974M,2019-06-07-12-13-25,8,35,0.6009823611912856,left,heavy poles sphere,stripes-2,left,left,0.5326420435903856,0.2238630557135366
JRR1974M,2019-06-07-12-13-25,8,36,0.5530149284715663,left,stripes-2,stripes-2,left,right,0.2794358717428622,0.2558294528366787
JRR1974M,2019-06-07-12-13-25,8,37,0.5324466417950864,left,stripes-8,stripes-4,right,left,0.5797335915876829,0.35181665707204957
JRR1974M,2019-06-07-12-13-25,8,38,0.6613936055602745,right,heavy poles sphere,stripes-8,left,left,0.4683441359020435,0.22381391778844772
JRR1974M,2019-06-07-12-13-25,8,39,0.5276318881919366,right,stripes-8,stripes-8,left,left,0.09846213845139573,0.9198846564963787
JRR1974M,2019-06-07-12-13-25,8,40,0.6060403842872156,right,stripes-4,heavy poles sphere,left,left,0.15373328494160887,0.23981235532710343
JRR1974M,2019-06-07-12-13-25,8,41,0.6920857592330024,right,stripes-2,heavy poles sphere,left,right,0.1826832976771584,0.22382977876441146
JRR1974M,2019-06-07-12-13-25,8,42,0.6624187943986836,right,stripes-8,stripes-2,right,right,0.05169154196391901,0.1999372402960944
JRR1974M,2019-06-07-12-13-25,8,43,0.5860211991143549,right,stripes-4,stripes-4,left,left,0.44968945142454686,0.28763568520480476
JRR1974M,2019-06-07-12-13-25,8,44,0.6657888112908675,left,stripes-4,stripes-2,left,left,0.6242273605566879,1.0076969272313363
JRR1974M,2019-06-07-12-13-25,8,45,0.6857416966300777,left,stripes-2,stripes-4,left,left,0.5141372608841266,0.31984341795941873
JRR1974M,2019-06-07-12-13-25,8,46,0.5644180114714505,left,stripes-8,heavy poles sphere,left,left,2.706617665581234,0.8719602517726344
JRR1974M,2019-06-07-12-13-25,8,47,0.5457305476045539,left,heavy poles sphere,stripes-4,left,right,0.16397854227670905,1.2478659990129017
JRR1974M,2019-06-07-12-13-25,9,0,0.5828018188231473,right,stripes-2,stripes-8,right,right,0.16820098282050822,1.8799812405086413
JRR1974M,2019-06-07-12-13-25,9,1,0.628159766607233,right,stripes-2,stripes-4,right,right,2.1310601756090364,2.1839506207393242
JRR1974M,2019-06-07-12-13-25,9,2,0.5792980317623333,left,heavy poles sphere,stripes-2,left,left,2.372882209862837,0.8400392605799425
JRR1974M,2019-06-07-12-13-25,9,3,0.5164813170526616,right,stripes-8,stripes-2,right,right,0.004293348435567168,3.815748331720897
JRR1974M,2019-06-07-12-13-25,9,4,0.6229631717979298,right,stripes-4,heavy poles sphere,right,right,0.04787029080625871,3.127780685623293
JRR1974M,2019-06-07-12-13-25,9,5,0.5888412050244402,right,stripes-8,stripes-8,right,right,1.9506869823994748,0.5038011916876712
JRR1974M,2019-06-07-12-13-25,9,6,0.6850411262943283,left,stripes-4,stripes-8,left,left,2.7897214035160687,1.0638404273877313
JRR1974M,2019-06-07-12-13-25,9,7,0.6364944058981342,right,heavy poles sphere,stripes-4,right,right,0.11188860992251648,0.6319186897962936
JRR1974M,2019-06-07-12-13-25,9,8,0.6516303114288111,left,heavy poles sphere,heavy poles sphere,left,left,0.8734773074534132,0.5917086282775017
JRR1974M,2019-06-07-12-13-25,9,9,0.6146526255689839,right,stripes-8,stripes-4,right,right,0.6689428721865625,0.9197350657254901
JRR1974M,2019-06-07-12-13-25,9,10,0.556392341501013,left,stripes-2,heavy poles sphere,right,right,0.8949011316958604,1.2959561664833927
JRR1974M,2019-06-07-12-13-25,9,11,0.5880847070955342,left,stripes-8,heavy poles sphere,right,right,0.6551671482493475,2.1039223571024195
JRR1974M,2019-06-07-12-13-25,9,12,0.542945184710829,right,stripes-4,stripes-4,right,right,3.3281430622691914,0.32796672553877215
JRR1974M,2019-06-07-12-13-25,9,13,0.6804812540096977,right,stripes-4,stripes-2,right,right,0.06332821117121057,0.7277276913041533
JRR1974M,2019-06-07-12-13-25,9,14,0.5137402491746629,left,heavy poles sphere,stripes-8,right,right,0.8592907531442506,2.9838053217617926
JRR1974M,2019-06-07-12-13-25,9,15,0.6733968238420809,right,stripes-2,stripes-2,right,right,0.5714694012231121,0.21580723503075205
JRR1974M,2019-06-07-12-13-25,9,16,0.6258337612524932,right,heavy poles sphere,stripes-4,right,right,0.6908325737167615,0.40789484732886194
JRR1974M,2019-06-07-12-13-25,9,17,0.5974273224715037,right,stripes-8,stripes-2,right,right,0.11806443847945047,0.607819647643737
JRR1974M,2019-06-07-12-13-25,9,18,0.6213529177165756,right,stripes-4,heavy poles sphere,right,right,0.1287376311602202,0.18388064584632957
JRR1974M,2019-06-07-12-13-25,9,19,0.6090400231339793,right,stripes-2,stripes-2,right,right,0.34729099199194025,0.15979497667331088
JRR1974M,2019-06-07-12-13-25,9,20,0.5492326006564077,right,stripes-2,heavy poles sphere,right,right,0.05691819997218772,0.17577630923824472
JRR1974M,2019-06-07-12-13-25,9,21,0.6114671955562606,left,stripes-4,stripes-4,left,left,0.6626482418105297,1.5678167118080637
JRR1974M,2019-06-07-12-13-25,9,22,0.6923950177823368,left,stripes-8,stripes-8,left,left,3.7832995743351603,0.8559593262380076
JRR1974M,2019-06-07-12-13-25,9,23,0.5103333417710098,right,heavy poles sphere,heavy poles sphere,right,right,0.6956748363131737,1.5677918318460797
JRR1974M,2019-06-07-12-13-25,9,24,0.5766143127867898,left,stripes-4,stripes-2,right,right,0.2598099357510364,0.8158391435817975
JRR1974M,2019-06-07-12-13-25,9,25,0.566889622598865,right,stripes-4,stripes-8,right,right,0.5369447220118673,1.1758344661484443
JRR1974M,2019-06-07-12-13-25,9,26,0.6393897201621634,right,stripes-8,stripes-4,right,right,0.7055157942659207,1.9599196252829643
JRR1974M,2019-06-07-12-13-25,9,27,0.5068022093807544,right,stripes-2,stripes-4,right,right,0.24024806566103507,0.5596812752473852
JRR1974M,2019-06-07-12-13-25,9,28,0.6861095328598478,left,heavy poles sphere,stripes-2,right,right,0.5240973316549571,0.20791873209236655
JRR1974M,2019-06-07-12-13-25,9,29,0.6349694738911569,right,stripes-8,heavy poles sphere,right,right,5.381326468951556,0.15183152284953394
JRR1974M,2019-06-07-12-13-25,9,30,0.6368949205681079,left,heavy poles sphere,stripes-8,right,right,0.11487855935138214,0.16801127311100572
JRR1974M,2019-06-07-12-13-25,9,31,0.6958844107140164,right,stripes-2,stripes-8,right,right,0.2672736133390572,0.27198339013739314
JRR1974M,2019-06-07-12-13-25,9,32,0.6155501734704895,right,stripes-2,heavy poles sphere,right,right,0.11756963823609112,2.4479267061205974
JRR1974M,2019-06-07-12-13-25,9,33,0.6883707459397841,right,heavy poles sphere,heavy poles sphere,right,right,1.938719098699039,0.8958210682894787
JRR1974M,2019-06-07-12-13-25,9,34,0.6051150934985398,left,heavy poles sphere,stripes-8,right,right,0.13594908813320217,2.1196682630270516
JRR1974M,2019-06-07-12-13-25,9,35,0.6584905844807096,right,stripes-4,heavy poles sphere,right,right,0.778545324604238,2.1677680714828966
JRR1974M,2019-06-07-12-13-25,9,36,0.6969111330246727,right,stripes-8,stripes-4,right,right,0.190062694394328,0.2558316298327554
JRR1974M,2019-06-07-12-13-25,9,37,0.646609214426614,left,stripes-8,stripes-8,right,right,0.4809949745585982,0.16790988726552314
JRR1974M,2019-06-07-12-13-25,9,38,0.5284186936112562,left,heavy poles sphere,stripes-2,right,right,0.8186039293541398,0.37580964838707587
JRR1974M,2019-06-07-12-13-25,9,39,0.5100699544482011,right,stripes-8,heavy poles sphere,right,right,1.1584539467239665,0.7757317119057916
JRR1974M,2019-06-07-12-13-25,9,40,0.5557690215848249,right,heavy poles sphere,stripes-4,right,right,0.09036961982474168,0.6157069065848191
JRR1974M,2019-06-07-12-13-25,9,41,0.6069778988166432,left,stripes-8,stripes-2,right,right,1.5889864494392896,1.303917754309623
JRR1974M,2019-06-07-12-13-25,9,42,0.6140192633404564,left,stripes-2,stripes-8,right,right,0.2620090133887061,0.2077175153999633
JRR1974M,2019-06-07-12-13-25,9,43,0.5670557153403983,left,stripes-2,stripes-4,left,left,0.7635629225123921,0.21580692403131252
JRR1974M,2019-06-07-12-13-25,9,44,0.5042823597557025,right,stripes-2,stripes-2,right,right,0.5674836313173728,0.2159667777859795
JRR1974M,2019-06-07-12-13-25,9,45,0.618156456540368,left,stripes-4,stripes-8,right,right,0.134863699793641,2.2078683501695195
JRR1974M,2019-06-07-12-13-25,9,46,0.562176480571997,left,stripes-4,stripes-2,right,left,0.04037955625972245,0.3678206926024359
JRR1974M,2019-06-07-12-13-25,9,47,0.520107565203781,left,stripes-4,stripes-4,left,right,0.5868178497557892,0.47183479456452915
JRR1974M,2019-06-07-12-13-25,10,0,0.6831384226900244,left,stripes-8,stripes-4,right,right,0.12900446875210037,2.799651307333079
JRR1974M,2019-06-07-12-13-25,10,1,0.6742352136609108,left,stripes-2,heavy poles sphere,right,right,2.8062560042344558,0.5678636727370758
JRR1974M,2019-06-07-12-13-25,10,2,0.5635382111011868,right,stripes-4,heavy poles sphere,right,right,0.9750730771138478,1.2717277485280647
JRR1974M,2019-06-07-12-13-25,10,3,0.6196108702061254,right,stripes-4,stripes-4,right,right,3.8743524601150057,0.6478421764495579
JRR1974M,2019-06-07-12-13-25,10,4,0.6544587717939501,right,stripes-8,stripes-8,right,right,0.09533006224046403,1.1038377652312192
JRR1974M,2019-06-07-12-13-25,10,5,0.5710191046278876,right,stripes-8,stripes-2,right,right,0.7030277980702522,0.7518481924244043
JRR1974M,2019-06-07-12-13-25,10,6,0.5160972685257756,left,stripes-4,stripes-2,right,left,0.022566436496163078,0.3678577015461997
JRR1974M,2019-06-07-12-13-25,10,7,0.5373465734419205,right,stripes-2,stripes-8,right,right,0.9689933474091958,0.255882633755391
JRR1974M,2019-06-07-12-13-25,10,8,0.5401602749091318,right,heavy poles sphere,stripes-8,right,right,0.3229017872827171,0.2157316621460268
JRR1974M,2019-06-07-12-13-25,10,9,0.6648318224837564,right,stripes-2,stripes-4,right,right,0.09762741572740197,0.24796054286889557
JRR1974M,2019-06-07-12-13-25,10,10,0.583358500527126,right,heavy poles sphere,heavy poles sphere,right,right,0.062248109822576225,1.199727004617671
JRR1974M,2019-06-07-12-13-25,10,11,0.6834270560194753,right,stripes-4,stripes-8,right,right,0.1270013208149976,0.22379494681808865
JRR1974M,2019-06-07-12-13-25,10,12,0.65973384971157,right,stripes-2,stripes-2,right,right,0.582101230967055,0.21581345502090699
JRR1974M,2019-06-07-12-13-25,10,13,0.5887965615807335,left,heavy poles sphere,stripes-4,right,right,0.2547922694229783,0.207812992253821
JRR1974M,2019-06-07-12-13-25,10,14,0.5227975281272746,left,heavy poles sphere,stripes-2,right,left,0.3518720149877481,0.25584842380794726
JRR1974M,2019-06-07-12-13-25,10,15,0.5938205141102838,left,stripes-8,heavy poles sphere,right,right,0.5122068868358838,0.47984645331507636
JRR1974M,2019-06-07-12-13-25,10,16,0.6353218097010949,left,heavy poles sphere,heavy poles sphere,left,left,2.3364476825718157,1.1838523448905107
JRR1974M,2019-06-07-12-13-25,10,17,0.6921200815490829,right,stripes-8,stripes-8,right,right,0.3010267027302689,0.175831356154049
JRR1974M,2019-06-07-12-13-25,10,18,0.5280074354101164,right,stripes-4,stripes-8,right,left,0.939157608028836,2.191826061698521
JRR1974M,2019-06-07-12-13-25,10,19,0.6568874074560984,right,stripes-8,stripes-2,right,right,0.5853247410386757,0.2640289553000912
JRR1974M,2019-06-07-12-13-25,10,20,0.5895599514849776,left,heavy poles sphere,stripes-2,right,left,0.07204086284946243,0.2318681834731251
JRR1974M,2019-06-07-12-13-25,10,21,0.5023808867423046,right,stripes-2,stripes-8,left,left,0.18326735478422052,0.21582185200804815
JRR1974M,2019-06-07-12-13-25,10,22,0.5682455993196761,right,heavy poles sphere,stripes-8,right,left,0.2651193196334134,0.2717078445584775
JRR1974M,2019-06-07-12-13-25,10,23,0.5735450398312797,left,stripes-4,stripes-2,left,left,0.24399467693183396,0.21584921996691264
JRR1974M,2019-06-07-12-13-25,10,24,0.6069138346628795,right,stripes-2,heavy poles sphere,left,left,0.05766926382420934,2.8558974373327146
JRR1974M,2019-06-07-12-13-25,10,25,0.6625348572695886,right,stripes-2,stripes-2,right,right,0.46386729774712876,0.19995994326200162
JRR1974M,2019-06-07-12-13-25,10,26,0.6084606307142743,right,stripes-4,heavy poles sphere,left,left,0.0533715613946697,0.2238288457656381
JRR1974M,2019-06-07-12-13-25,10,27,0.6018906840626275,left,stripes-4,stripes-4,right,right,0.40983081936883536,0.1840006916636412
JRR1974M,2019-06-07-12-13-25,10,28,0.6896494072002828,left,stripes-2,stripes-4,left,left,0.22128051566141949,0.20781703524789918
JRR1974M,2019-06-07-12-13-25,10,29,0.593864867560422,right,stripes-8,heavy poles sphere,left,left,3.2928831801818887,3.2237510958839266
JRR1974M,2019-06-07-12-13-25,10,30,0.5698912371208957,left,stripes-8,stripes-4,left,left,6.50818752898067,1.9756701962005536
JRR1974M,2019-06-07-12-13-25,10,31,0.6532511036245465,right,heavy poles sphere,stripes-4,left,left,0.08919341962337057,2.1838144029479736
JRR1974M,2019-06-07-12-13-25,10,32,0.6488928518108279,right,heavy poles sphere,stripes-4,right,right,1.3945902876712353,0.48784878207970905
JRR1974M,2019-06-07-12-13-25,10,33,0.6953004487189685,left,heavy poles sphere,heavy poles sphere,left,left,0.676522863595892,1.6156894906107482
JRR1974M,2019-06-07-12-13-25,10,34,0.6658702404114485,left,stripes-2,stripes-4,left,left,0.18779146486667742,0.3118550841736578
JRR1974M,2019-06-07-12-13-25,10,35,0.6850276897425842,left,stripes-8,heavy poles sphere,left,left,0.7488122150662093,1.503837578632556
JRR1974M,2019-06-07-12-13-25,10,36,0.6521766268471244,left,stripes-2,stripes-2,left,right,0.750114992073577,0.38387604305353307
JRR1974M,2019-06-07-12-13-25,10,37,0.5792381959469228,right,stripes-4,heavy poles sphere,right,left,0.738060650504849,1.9596869976385278
JRR1974M,2019-06-07-12-13-25,10,38,0.6187306650718136,right,stripes-8,stripes-4,right,right,0.3070361465415772,0.80790927770704
JRR1974M,2019-06-07-12-13-25,10,39,0.5736150194754626,left,stripes-8,stripes-2,left,left,2.910083195482912,1.5678319507851484
JRR1974M,2019-06-07-12-13-25,10,40,0.6226261046441044,right,stripes-4,stripes-8,left,left,0.05443144777473208,0.6479675092568868
JRR1974M,2019-06-07-12-13-25,10,41,0.540821721185702,left,stripes-2,heavy poles sphere,left,left,0.8772687026566928,2.1120724106413036
JRR1974M,2019-06-07-12-13-25,10,42,0.5099298487197695,left,heavy poles sphere,stripes-8,left,left,1.7275566415655703,2.6478001915129425
JRR1974M,2019-06-07-12-13-25,10,43,0.6391805981869497,right,stripes-2,stripes-8,right,right,0.33139362929887284,0.5197377403210339
JRR1974M,2019-06-07-12-13-25,10,44,0.6586671938072453,left,stripes-4,stripes-2,right,right,0.061906943344183674,1.8398165849202996
JRR1974M,2019-06-07-12-13-25,10,45,0.5538080419231055,left,heavy poles sphere,stripes-2,left,right,0.05110966185293364,0.30383254043954366
JRR1974M,2019-06-07-12-13-25,10,46,0.5121079714023645,right,stripes-4,stripes-4,right,right,2.86408014582139,0.967872194123629
JRR1974M,2019-06-07-12-13-25,10,47,0.5342491308937256,left,stripes-8,stripes-8,right,right,1.4622843101669787,0.9518473216248822
