Participant,Session,Block,Trial,OnsetDelay,Bias,Shape1,Shape2,Response1,Response2,RT1,RT2
BKF1975w,2019-04-15-14-52-55,0,0,0.6030265817726088,left,stripes-8,heavy poles sphere,right,right,1.0524116277606481,1.4239109003574413
BKF1975w,2019-04-15-14-52-55,0,1,0.6851869856129359,right,stripes-8,stripes-2,right,right,0.35578094668835547,1.135959180804548
BKF1975w,2019-04-15-14-52-55,0,2,0.6424730666468009,right,heavy poles sphere,heavy poles sphere,right,right,0.806533633789968,6.439447608586306
BKF1975w,2019-04-15-14-52-55,0,3,0.6727649571833852,right,heavy poles sphere,stripes-8,right,right,0.268581758743494,1.511636903966064
BKF1975w,2019-04-15-14-52-55,0,4,0.5483032751886181,right,stripes-2,stripes-8,right,right,0.229078980677059,1.1517991034806982
BKF1975w,2019-04-15-14-52-55,0,5,0.6040934306450892,right,stripes-2,heavy poles sphere,right,right,0.3652518110452547,1.0478068110360255
BKF1975w,2019-04-15-14-52-55,0,6,0.6618927295336994,right,stripes-4,stripes-2,right,right,0.36075210866238194,1.367753407975215
BKF1975w,2019-04-15-14-52-55,0,7,0.5493785308481562,right,stripes-2,stripes-4,right,right,0.8439919690154056,3.7917591600307787
BKF1975w,2019-04-15-14-52-55,0,8,0.6099519055434084,left,stripes-8,stripes-4,right,right,0.254144708239437,1.4559266140181535
BKF1975w,2019-04-15-14-52-55,0,9,0.5910693340089183,right,stripes-4,heavy poles sphere,right,right,0.009523732517209282,1.2078057661124149
BKF1975w,2019-04-15-14-52-55,0,10,0.5459248526826268,right,stripes-8,stripes-8,right,right,0.8331440445886074,4.503698594267007
BKF1975w,2019-04-15-14-52-55,0,11,0.6179924672912068,left,stripes-4,stripes-8,right,right,0.17407028230991273,0.9358118341333466
BKF1975w,2019-04-15-14-52-55,0,12,0.6710193724281973,right,stripes-4,stripes-4,right,right,0.6449508108421469,4.311627636488538
BKF1975w,2019-04-15-14-52-55,0,13,0.6248846539518678,right,heavy poles sphere,stripes-4,right,right,0.1623973035993913,0.9997026943478886
BKF1975w,2019-04-15-14-52-55,0,14,0.6031136410567833,left,stripes-2,stripes-2,right,right,0.15400619366073443,0.871924083810427
BKF1975w,2019-04-15-14-52-55,0,15,0.5347261935824056,right,heavy poles sphere,stripes-2,right,right,0.6193623104754806,3.2235548799485514
BKF1975w,2019-04-15-14-52-55,0,16,0.5166206765614609,right,stripes-4,stripes-2,right,right,0.369616233137549,1.3276233647411573
BKF1975w,2019-04-15-14-52-55,0,17,0.5397526383209226,left,stripes-4,heavy poles sphere,right,right,0.27151749656195534,0.9838067936207153
BKF1975w,2019-04-15-14-52-55,0,18,0.5047094125972911,left,heavy poles sphere,heavy poles sphere,right,right,0.05791084935526669,1.0639269349589995
BKF1975w,2019-04-15-14-52-55,0,19,0.5050445385115528,right,heavy poles sphere,stripes-8,right,right,0.9685232305805584,3.2317090161359374
BKF1975w,2019-04-15-14-52-55,0,20,0.5405742436910662,left,stripes-4,stripes-4,right,right,0.17515407958717333,1.063637404036399
BKF1975w,2019-04-15-14-52-55,0,21,0.534699801081018,left,stripes-2,stripes-2,right,left,1.1826868594012012,1.2797978943544877
BKF1975w,2019-04-15-14-52-55,0,22,0.6703900770787184,left,heavy poles sphere,stripes-2,right,right,0.45597948217800877,0.9598432116972617
BKF1975w,2019-04-15-14-52-55,0,23,0.6080216446948465,right,stripes-8,stripes-2,right,right,0.1901608622611093,1.0399288332368997
BKF1975w,2019-04-15-14-52-55,0,24,0.6260991880872581,right,stripes-2,stripes-8,right,right,0.8669457690857598,4.287601234751492
BKF1975w,2019-04-15-14-52-55,0,25,0.5715616603979896,left,stripes-8,stripes-4,right,right,0.305495551921922,1.2637894155454887
BKF1975w,2019-04-15-14-52-55,0,26,0.5818312707485697,left,stripes-8,heavy poles sphere,right,right,0.1950188241748947,1.039788888107978
BKF1975w,2019-04-15-14-52-55,0,27,0.5859684679996323,right,stripes-4,stripes-8,right,right,0.5765701998975601,3.439655971334105
BKF1975w,2019-04-15-14-52-55,0,28,0.6985695205666071,right,stripes-2,stripes-4,right,right,0.20790310572419912,0.9197613717856257
BKF1975w,2019-04-15-14-52-55,0,29,0.5401970577095224,left,heavy poles sphere,stripes-4,right,right,0.10972817680112712,0.8477990985043107
BKF1975w,2019-04-15-14-52-55,0,30,0.595351624187915,right,stripes-8,stripes-8,right,right,0.5022966550623096,2.6637081229750947
BKF1975w,2019-04-15-14-52-55,0,31,0.6408645616944744,right,stripes-2,heavy poles sphere,right,right,0.22764874145786962,0.8958236019634569
BKF1975w,2019-04-15-14-52-55,0,32,0.6219958761536271,left,stripes-8,heavy poles sphere,right,right,0.005386954501773289,0.9118355016535133
BKF1975w,2019-04-15-14-52-55,0,33,0.6630549328370045,right,stripes-2,heavy poles sphere,right,right,0.8699166486808281,3.399644103987157
BKF1975w,2019-04-15-14-52-55,0,34,0.5006451056687976,left,stripes-4,heavy poles sphere,right,right,0.06121573132531921,1.2158047187012926
BKF1975w,2019-04-15-14-52-55,0,35,0.6360739053426978,left,stripes-2,stripes-8,right,right,0.21484376214812073,1.2236637261603391
BKF1975w,2019-04-15-14-52-55,0,36,0.6631475511646263,right,stripes-8,stripes-4,right,right,1.0967922710483435,2.2077410803640305
BKF1975w,2019-04-15-14-52-55,0,37,0.620027473464479,right,stripes-8,stripes-8,right,right,1.040793072156248,3.7356147291939124
BKF1975w,2019-04-15-14-52-55,0,38,0.5589783132167138,right,heavy poles sphere,heavy poles sphere,right,right,1.2489132483256071,4.039520504449229
BKF1975w,2019-04-15-14-52-55,0,39,0.6508199892341914,left,stripes-2,stripes-4,right,right,0.5424428697338044,0.9998283339746195
BKF1975w,2019-04-15-14-52-55,0,40,0.5577648119647147,left,stripes-8,stripes-2,right,right,0.9686771702226906,1.2956595862724498
BKF1975w,2019-04-15-14-52-55,0,41,0.5926249321839939,left,stripes-4,stripes-8,right,right,0.700807265702224,1.0316590090765203
BKF1975w,2019-04-15-14-52-55,0,42,0.5191123052806993,left,heavy poles sphere,stripes-4,right,right,0.026209545750589314,0.8156742276428304
BKF1975w,2019-04-15-14-52-55,0,43,0.598105977570545,left,heavy poles sphere,stripes-8,right,right,0.6321853271574582,3.103642740610667
BKF1975w,2019-04-15-14-52-55,0,44,0.5296776950049057,left,stripes-4,stripes-4,right,right,0.6816711687533825,1.3117818871196505
BKF1975w,2019-04-15-14-52-55,0,45,0.6318823382417813,right,stripes-4,stripes-2,right,right,0.5673506147945773,1.119803915104967
BKF1975w,2019-04-15-14-52-55,0,46,0.5360497158313834,right,stripes-2,stripes-2,right,right,0.5887528898670098,1.2636563121782274
BKF1975w,2019-04-15-14-52-55,0,47,0.526463686112594,right,heavy poles sphere,stripes-2,right,right,0.5807222163825827,1.2316390435712492
BKF1975w,2019-04-15-14-52-55,1,0,0.6104138299551162,right,stripes-4,heavy poles sphere,right,right,0.09626421142775143,1.1037997901444214
BKF1975w,2019-04-15-14-52-55,1,1,0.6734230057161097,right,heavy poles sphere,stripes-4,right,right,0.34069859364490185,0.9756371079747623
BKF1975w,2019-04-15-14-52-55,1,2,0.6176813967831837,left,stripes-2,stripes-2,right,right,0.6134818161517614,1.0077806381873415
BKF1975w,2019-04-15-14-52-55,1,3,0.6590307685898789,right,stripes-8,heavy poles sphere,right,right,0.31343230667516764,1.0158309039893538
BKF1975w,2019-04-15-14-52-55,1,4,0.574168923884745,right,stripes-8,stripes-2,right,right,0.5317093893231686,1.175790674430118
BKF1975w,2019-04-15-14-52-55,1,5,0.5292002857907903,left,stripes-4,stripes-4,right,right,0.608335256283226,1.143825652004125
BKF1975w,2019-04-15-14-52-55,1,6,0.525476700654325,right,stripes-8,stripes-4,right,right,0.4276281539746378,1.0877928662812337
BKF1975w,2019-04-15-14-52-55,1,7,0.5955099233600212,left,heavy poles sphere,stripes-8,right,right,0.40648710980985925,1.1758245722498941
BKF1975w,2019-04-15-14-52-55,1,8,0.5794050177966994,left,stripes-2,stripes-8,right,right,0.38980938229451567,1.1279173117100072
BKF1975w,2019-04-15-14-52-55,1,9,0.6518230137242812,left,stripes-2,stripes-4,right,right,0.4133170540867468,1.2076742176909647
BKF1975w,2019-04-15-14-52-55,1,10,0.6823973770249857,left,stripes-8,stripes-8,right,right,0.4872422910448222,1.5196324356734294
BKF1975w,2019-04-15-14-52-55,1,11,0.6310639915019722,left,stripes-2,heavy poles sphere,right,right,0.556795331182002,1.2557917069138966
BKF1975w,2019-04-15-14-52-55,1,12,0.5620392757255586,left,heavy poles sphere,stripes-2,right,right,0.4213315561341915,1.0959628629166218
BKF1975w,2019-04-15-14-52-55,1,13,0.585645681010915,left,stripes-4,stripes-2,right,right,0.15147878462903464,1.047807433014441
BKF1975w,2019-04-15-14-52-55,1,14,0.6231364258238393,right,stripes-4,stripes-8,right,right,0.07727490136994675,0.9597803918836689
BKF1975w,2019-04-15-14-52-55,1,15,0.5485931844264771,right,heavy poles sphere,heavy poles sphere,right,right,0.29439790318701853,1.1598154714629345
BKF1975w,2019-04-15-14-52-55,1,16,0.6202952482049038,left,stripes-4,stripes-2,right,right,0.5138452381024763,1.0639387525475286
BKF1975w,2019-04-15-14-52-55,1,17,0.5557825403730592,right,heavy poles sphere,stripes-8,right,right,0.18000519973884366,0.9597872336453293
BKF1975w,2019-04-15-14-52-55,1,18,0.5562061855064473,left,stripes-8,stripes-2,right,right,0.526416353552122,0.8799460495979474
BKF1975w,2019-04-15-14-52-55,1,19,0.5653137621583048,left,heavy poles sphere,heavy poles sphere,right,right,0.16813971872898037,0.9036754566718628
BKF1975w,2019-04-15-14-52-55,1,20,0.5947286933360534,right,stripes-2,stripes-8,right,right,0.059844269060249644,0.8718127496854322
BKF1975w,2019-04-15-14-52-55,1,21,0.6597210402823284,left,stripes-8,stripes-8,right,right,0.27495330497504256,0.9518069404075504
BKF1975w,2019-04-15-14-52-55,1,22,0.5796896222591358,left,stripes-4,stripes-4,right,right,0.2973949058728067,0.8157855617678251
BKF1975w,2019-04-15-14-52-55,1,23,0.5055023752140178,right,stripes-4,stripes-8,right,right,0.8630705329669581,5.247482076139022
BKF1975w,2019-04-15-14-52-55,1,24,0.6248592566439811,left,stripes-2,stripes-4,right,right,0.34002778999274597,1.0159720930751064
BKF1975w,2019-04-15-14-52-55,1,25,0.628853538553609,left,heavy poles sphere,stripes-2,right,right,0.40346989282716095,0.8156925760044942
BKF1975w,2019-04-15-14-52-55,1,26,0.6023019573367016,left,stripes-4,heavy poles sphere,right,right,0.6986620623683848,6.143423543000154
BKF1975w,2019-04-15-14-52-55,1,27,0.5109943370752654,left,stripes-8,stripes-4,right,right,0.030528563422649313,1.1356702718603628
BKF1975w,2019-04-15-14-52-55,1,28,0.5231073658112151,left,heavy poles sphere,stripes-4,right,right,0.14616149170342396,0.9198515586467693
BKF1975w,2019-04-15-14-52-55,1,29,0.5114639192442193,left,stripes-8,heavy poles sphere,right,right,0.21884090602316064,0.82369494947352
BKF1975w,2019-04-15-14-52-55,1,30,0.5535759812136857,left,stripes-2,heavy poles sphere,right,right,0.7785607794135103,3.2157005373269385
BKF1975w,2019-04-15-14-52-55,1,31,0.6420990112725817,left,stripes-2,stripes-2,right,right,0.6772249565083257,1.023806843379134
BKF1975w,2019-04-15-14-52-55,1,32,0.5723810021190294,left,heavy poles sphere,stripes-8,right,right,0.1373804013373956,0.9676574367153989
BKF1975w,2019-04-15-14-52-55,1,33,0.6282447933960965,right,heavy poles sphere,heavy poles sphere,right,right,0.3243881443463579,0.9277625012982753
BKF1975w,2019-04-15-14-52-55,1,34,0.6436137047346316,left,stripes-8,stripes-8,right,right,0.07863827791607036,0.9837927991079596
BKF1975w,2019-04-15-14-52-55,1,35,0.6757159157878277,left,stripes-2,heavy poles sphere,right,right,0.7203436057202453,4.519587964221046
BKF1975w,2019-04-15-14-52-55,1,36,0.6564605014671001,right,stripes-4,stripes-8,right,right,0.4321241244879275,0.9516722820944779
BKF1975w,2019-04-15-14-52-55,1,37,0.5462801063847471,right,stripes-8,heavy poles sphere,right,right,1.0741600337855743,2.2557360398513993
BKF1975w,2019-04-15-14-52-55,1,38,0.6162199119471801,left,stripes-4,stripes-2,right,right,0.4335627604145884,0.9277948441726949
BKF1975w,2019-04-15-14-52-55,1,39,0.5177042265098617,right,heavy poles sphere,stripes-4,right,right,0.46978055981799116,0.8478084281800875
BKF1975w,2019-04-15-14-52-55,1,40,0.6881125155609429,right,stripes-2,stripes-2,right,right,0.3806457752430106,1.1517994144696786
BKF1975w,2019-04-15-14-52-55,1,41,0.6612088701917036,right,stripes-8,stripes-2,right,right,0.2833773797669892,0.9598012281585397
BKF1975w,2019-04-15-14-52-55,1,42,0.5303996530477019,left,stripes-2,stripes-8,right,right,0.04312549097448937,0.9038110479527859
BKF1975w,2019-04-15-14-52-55,1,43,0.6969139804998468,right,stripes-4,heavy poles sphere,right,right,0.7766889355648345,4.151616552834184
BKF1975w,2019-04-15-14-52-55,1,44,0.6093355564525998,right,stripes-4,stripes-4,right,right,0.5187831242346874,1.1439242355727401
BKF1975w,2019-04-15-14-52-55,1,45,0.6131303254205078,left,stripes-8,stripes-4,right,right,0.25808183120352624,1.4159610840588357
BKF1975w,2019-04-15-14-52-55,1,46,0.6804634957054112,left,heavy poles sphere,stripes-2,right,right,0.41133854095096467,1.2077395254182193
BKF1975w,2019-04-15-14-52-55,1,47,0.5396457997914218,right,stripes-2,stripes-4,right,right,0.22760022714646766,1.1036315450000984
BKF1975w,2019-04-15-14-52-55,2,0,0.5079196207470691,left,heavy poles sphere,stripes-4,right,right,0.48607452669011764,1.231687557883106
BKF1975w,2019-04-15-14-52-55,2,1,0.5336719184615278,right,stripes-8,stripes-4,right,right,0.10599101987645554,0.8477739083814413
BKF1975w,2019-04-15-14-52-55,2,2,0.5976526341793454,right,stripes-8,stripes-8,right,right,0.5545008530434643,2.135711322431689
BKF1975w,2019-04-15-14-52-55,2,3,0.5554748547540576,left,stripes-4,heavy poles sphere,right,right,0.09495712392254063,1.1598204472893485
BKF1975w,2019-04-15-14-52-55,2,4,0.6755774562125602,left,stripes-8,heavy poles sphere,right,right,0.1532719482165703,1.135904135720466
BKF1975w,2019-04-15-14-52-55,2,5,0.5913860711783202,left,heavy poles sphere,stripes-8,right,right,0.006418194608158956,0.8638113091833475
BKF1975w,2019-04-15-14-52-55,2,6,0.6736399041111957,right,heavy poles sphere,heavy poles sphere,right,right,0.7056608737680108,2.815675160610226
BKF1975w,2019-04-15-14-52-55,2,7,0.6554794171555025,left,stripes-4,stripes-8,right,right,0.9672083683458368,2.3598350015831784
BKF1975w,2019-04-15-14-52-55,2,8,0.6515173589915104,right,stripes-2,heavy poles sphere,right,right,0.9337493539196657,2.615696059082893
BKF1975w,2019-04-15-14-52-55,2,9,0.5351556984218934,left,stripes-8,stripes-2,right,right,0.5190241408454312,1.3836651691499355
BKF1975w,2019-04-15-14-52-55,2,10,0.6038011477067617,left,stripes-2,stripes-8,right,right,1.3125901479870663,1.047827336321916
BKF1975w,2019-04-15-14-52-55,2,11,0.5355975476368243,left,stripes-4,stripes-4,right,right,0.17809106136246555,1.207833755138381
BKF1975w,2019-04-15-14-52-55,2,12,0.627006151417969,right,stripes-2,stripes-2,right,right,2.839434422645354,1.1518168298630371
BKF1975w,2019-04-15-14-52-55,2,13,0.5888755768671244,left,stripes-2,stripes-4,right,right,1.1010571766041721,1.335657459106642
BKF1975w,2019-04-15-14-52-55,2,14,0.5991292927424127,right,heavy poles sphere,stripes-2,right,right,0.29034415928117596,1.1439264124974216
BKF1975w,2019-04-15-14-52-55,2,15,0.6012481039192273,left,stripes-4,stripes-2,right,right,0.6872870112883902,1.1916663608603812
BKF1975w,2019-04-15-14-52-55,2,16,0.5985292817589887,left,stripes-4,stripes-4,right,right,0.7543742182510869,1.1596944966731826
BKF1975w,2019-04-15-14-52-55,2,17,0.5885169334440852,left,stripes-2,stripes-4,right,right,0.7720346715614141,0.8159379464636913
BKF1975w,2019-04-15-14-52-55,2,18,0.6300905212529082,left,stripes-4,stripes-2,right,right,0.8733748483150521,1.8318665010547193
BKF1975w,2019-04-15-14-52-55,2,19,0.5600524425802766,right,stripes-8,stripes-4,right,right,0.8519175281585376,1.2876472611492318
BKF1975w,2019-04-15-14-52-55,2,20,0.5608915471228145,left,heavy poles sphere,stripes-8,right,right,1.9433713590165098,1.1198064030186288
BKF1975w,2019-04-15-14-52-55,2,21,0.6193376067857419,left,stripes-4,stripes-8,right,right,1.1048720808221333,1.551911557166477
BKF1975w,2019-04-15-14-52-55,2,22,0.5854420166775289,left,stripes-4,heavy poles sphere,right,right,0.34155723475896593,1.063631184253154
BKF1975w,2019-04-15-14-52-55,2,23,0.6385893321519318,left,heavy poles sphere,heavy poles sphere,right,right,0.18030095044514383,1.2559313410533832
BKF1975w,2019-04-15-14-52-55,2,24,0.5261964998792701,left,stripes-8,heavy poles sphere,right,right,1.093815171669121,1.9036322291767647
BKF1975w,2019-04-15-14-52-55,2,25,0.6458343331662657,right,stripes-8,stripes-8,right,right,0.17728000159240764,1.3357837207117882
BKF1975w,2019-04-15-14-52-55,2,26,0.6477282404358147,right,stripes-8,stripes-2,right,right,0.5366951677879115,1.2157213736018093
BKF1975w,2019-04-15-14-52-55,2,27,0.6741159111004942,left,stripes-2,stripes-8,right,right,0.7339929206423221,1.39166629866304
BKF1975w,2019-04-15-14-52-55,2,28,0.6052955900891744,left,heavy poles sphere,stripes-4,right,right,2.055365091962358,1.4157716916506615
BKF1975w,2019-04-15-14-52-55,2,29,0.6361423813069333,left,stripes-2,stripes-2,right,left,1.2720082374812591,1.6556379538656074
BKF1975w,2019-04-15-14-52-55,2,30,0.5179368192913879,left,heavy poles sphere,stripes-2,right,right,0.9409885599525296,1.2957886467802382
BKF1975w,2019-04-15-14-52-55,2,31,0.5003065297701668,left,stripes-2,heavy poles sphere,right,right,0.9905543257659701,1.3517850467696917
BKF1975w,2019-04-15-14-52-55,2,32,0.512292081151672,left,stripes-4,stripes-4,right,right,2.2739006066158254,1.2157745527510997
BKF1975w,2019-04-15-14-52-55,2,33,0.6166168374131069,left,heavy poles sphere,stripes-8,right,right,0.5951350097307113,1.2959167743206308
BKF1975w,2019-04-15-14-52-55,2,34,0.6347682222314529,left,stripes-8,stripes-2,right,right,0.4043459493350383,1.135661564163911
BKF1975w,2019-04-15-14-52-55,2,35,0.5250947927478226,left,heavy poles sphere,heavy poles sphere,right,right,0.017738822582487046,1.2717955208850071
BKF1975w,2019-04-15-14-52-55,2,36,0.515430570401691,left,stripes-8,stripes-8,right,right,1.1360674050379203,2.0238597115389894
BKF1975w,2019-04-15-14-52-55,2,37,0.6174048345189366,left,stripes-2,heavy poles sphere,right,right,2.3907784245661787,2.2876183391558698
BKF1975w,2019-04-15-14-52-55,2,38,0.5639670232311891,left,heavy poles sphere,stripes-2,right,right,0.8176104462504554,1.527768845477567
BKF1975w,2019-04-15-14-52-55,2,39,0.5034800394942408,right,stripes-4,stripes-8,right,right,0.7250740620725082,1.2477884004770203
BKF1975w,2019-04-15-14-52-55,2,40,0.6002870281075604,left,stripes-8,stripes-4,right,right,0.22027052326438934,1.2636811913121164
BKF1975w,2019-04-15-14-52-55,2,41,0.5758810482222445,left,stripes-8,heavy poles sphere,right,right,0.09700001181727202,1.1278243259462215
BKF1975w,2019-04-15-14-52-55,2,42,0.6240324659473295,right,stripes-2,stripes-4,right,right,1.4532178982976802,1.151790706772772
BKF1975w,2019-04-15-14-52-55,2,43,0.6827064324970797,left,stripes-2,stripes-2,right,right,0.6710897620500873,1.1998634135543398
BKF1975w,2019-04-15-14-52-55,2,44,0.502765844124303,right,stripes-4,heavy poles sphere,right,right,0.19098995940339591,1.0639598998113797
BKF1975w,2019-04-15-14-52-55,2,45,0.6843677771140325,right,stripes-2,stripes-8,right,right,0.6798403754760329,1.1037973022307597
BKF1975w,2019-04-15-14-52-55,2,46,0.5879793685592976,right,stripes-4,stripes-2,right,right,0.26316246136730115,1.0156900258930364
BKF1975w,2019-04-15-14-52-55,2,47,0.6629783616150842,left,heavy poles sphere,stripes-4,right,right,0.18471513080521618,1.031799265194877
BKF1975w,2019-04-15-14-52-55,3,0,0.5995822026115502,right,stripes-4,stripes-2,right,right,0.4339216419234617,0.9516834777045915
BKF1975w,2019-04-15-14-52-55,3,1,0.5443134819822096,left,stripes-4,stripes-8,right,right,0.8026950943949487,2.5038208130126804
BKF1975w,2019-04-15-14-52-55,3,2,0.6750340955756856,left,stripes-8,heavy poles sphere,right,right,0.025336288145354047,1.1279303732553672
BKF1975w,2019-04-15-14-52-55,3,3,0.5663825952290632,left,heavy poles sphere,stripes-2,right,right,0.27650514096194456,0.9676820048603076
BKF1975w,2019-04-15-14-52-55,3,4,0.6549084803504215,right,stripes-4,heavy poles sphere,right,right,0.008052753715674044,1.0158153545303321
BKF1975w,2019-04-15-14-52-55,3,5,0.5598458672878284,right,heavy poles sphere,stripes-8,right,right,0.984529843454311,2.471703094901841
BKF1975w,2019-04-15-14-52-55,3,6,0.53361801875458,left,stripes-8,stripes-2,right,right,0.42175823328261686,1.5437586649359218
BKF1975w,2019-04-15-14-52-55,3,7,0.6447631381791268,right,heavy poles sphere,heavy poles sphere,right,right,1.1094566832507553,2.439713815320829
BKF1975w,2019-04-15-14-52-55,3,8,0.6277624500955766,right,stripes-8,stripes-8,right,right,0.12323288175593916,1.8557451829333331
BKF1975w,2019-04-15-14-52-55,3,9,0.5901251101339741,right,stripes-8,stripes-4,right,right,0.27426259801632114,1.583774886131323
BKF1975w,2019-04-15-14-52-55,3,10,0.5726600847256177,right,heavy poles sphere,stripes-4,right,right,0.30421583146380726,1.7996470894840968
BKF1975w,2019-04-15-14-52-55,3,11,0.6071465479209099,left,stripes-2,stripes-2,right,left,0.7296679941755428,1.5597260931735946
BKF1975w,2019-04-15-14-52-55,3,12,0.6861593822753713,right,stripes-4,stripes-4,left,right,3.21620838265153,1.4717596949321887
BKF1975w,2019-04-15-14-52-55,3,13,0.521999163675314,right,stripes-2,heavy poles sphere,right,right,0.4365684707972832,2.015764041316288
BKF1975w,2019-04-15-14-52-55,3,14,0.5807769098411526,right,stripes-2,stripes-4,right,right,0.5365533567237435,1.479781038740839
BKF1975w,2019-04-15-14-52-55,3,15,0.60113519890113,right,stripes-2,stripes-8,right,right,0.44615688906287687,1.303829893897273
BKF1975w,2019-04-15-14-52-55,3,16,0.6531273639573993,right,stripes-4,heavy poles sphere,right,right,0.8455416280776262,1.1356696498824022
BKF1975w,2019-04-15-14-52-55,3,17,0.6899024287979021,left,stripes-2,stripes-8,right,right,0.9923863630001506,1.151771425444167
BKF1975w,2019-04-15-14-52-55,3,18,0.5798025158550568,right,heavy poles sphere,stripes-2,right,right,0.45804382832648116,1.0637866788410975
BKF1975w,2019-04-15-14-52-55,3,19,0.6422319770309504,right,heavy poles sphere,heavy poles sphere,right,right,1.1480821608520273,2.1998851827966064
BKF1975w,2019-04-15-14-52-55,3,20,0.6995286975936793,left,stripes-4,stripes-4,right,right,1.2785660662293594,2.047768559367796
BKF1975w,2019-04-15-14-52-55,3,21,0.5469146075980393,right,stripes-2,heavy poles sphere,right,right,0.761238993315601,1.655759239643885
BKF1975w,2019-04-15-14-52-55,3,22,0.5534929916956507,right,stripes-8,stripes-2,right,right,0.7279771460280244,1.5037542613290498
BKF1975w,2019-04-15-14-52-55,3,23,0.6143041150704646,left,stripes-4,stripes-2,right,right,0.7153907921074278,1.2239084746415756
BKF1975w,2019-04-15-14-52-55,3,24,0.5162814715160561,left,stripes-2,stripes-4,right,right,2.127088836546136,1.2157686439559257
BKF1975w,2019-04-15-14-52-55,3,25,0.5283829172873294,left,stripes-2,stripes-2,right,left,1.0651080718489538,1.3998002205535158
BKF1975w,2019-04-15-14-52-55,3,26,0.6513764287596637,left,heavy poles sphere,stripes-4,right,right,0.04326139324439282,1.1838151281308456
BKF1975w,2019-04-15-14-52-55,3,27,0.5925307206125148,left,stripes-8,stripes-4,right,right,0.272801881857049,1.231844607415951
BKF1975w,2019-04-15-14-52-55,3,28,0.5980387926590021,right,stripes-4,stripes-8,right,right,0.1628902214433765,1.103787350577477
BKF1975w,2019-04-15-14-52-55,3,29,0.5866100339010506,left,stripes-8,stripes-8,right,right,0.4311749855241942,1.2638099408313792
BKF1975w,2019-04-15-14-52-55,3,30,0.5073211383015416,left,stripes-8,heavy poles sphere,left,left,0.5346149611923465,1.4477746547554489
BKF1975w,2019-04-15-14-52-55,3,31,0.6440601573191013,right,heavy poles sphere,stripes-8,right,right,0.036493646802227886,1.1517630287353313
BKF1975w,2019-04-15-14-52-55,3,32,0.6716745077790351,left,stripes-2,stripes-4,right,right,1.672521867204523,1.2397773193106332
BKF1975w,2019-04-15-14-52-55,3,33,0.643338166009778,left,stripes-8,stripes-2,right,right,0.27150256908134907,1.3997915128566092
BKF1975w,2019-04-15-14-52-55,3,34,0.6412917079770679,left,stripes-2,stripes-8,left,right,0.33685103556308604,1.3196527121681356
BKF1975w,2019-04-15-14-52-55,3,35,0.5353327667756587,right,heavy poles sphere,stripes-8,right,right,0.01617610197445174,1.383792052733952
BKF1975w,2019-04-15-14-52-55,3,36,0.5002140870883136,left,stripes-8,heavy poles sphere,left,left,0.18791209953087673,1.3036591608388335
BKF1975w,2019-04-15-14-52-55,3,37,0.6924691684085412,right,stripes-2,stripes-2,right,right,0.4664532866263471,1.2879184437106233
BKF1975w,2019-04-15-14-52-55,3,38,0.6970501476666432,left,stripes-4,stripes-8,left,left,0.686378611906548,1.1436536749906736
BKF1975w,2019-04-15-14-52-55,3,39,0.5099057405256293,left,stripes-8,stripes-4,left,left,0.35085581111252395,1.1758758854639382
BKF1975w,2019-04-15-14-52-55,3,40,0.6291120532287693,right,heavy poles sphere,heavy poles sphere,right,right,1.0169119023639723,2.9197044607662974
BKF1975w,2019-04-15-14-52-55,3,41,0.5415392019458689,right,stripes-4,heavy poles sphere,right,right,1.0830950637937349,2.9036953599797926
BKF1975w,2019-04-15-14-52-55,3,42,0.6508592258572334,left,heavy poles sphere,stripes-2,left,right,1.1190665597687257,1.511752591939512
BKF1975w,2019-04-15-14-52-55,3,43,0.5839131326296064,right,stripes-4,stripes-4,right,right,0.011700967736032908,1.303704254269178
BKF1975w,2019-04-15-14-52-55,3,44,0.6736428505969143,left,stripes-4,stripes-2,left,left,0.818569536868381,1.5756599345804716
BKF1975w,2019-04-15-14-52-55,3,45,0.5242196685495786,left,stripes-8,stripes-8,left,left,0.5391725075614886,1.2797755031342604
BKF1975w,2019-04-15-14-52-55,3,46,0.5976506740309957,left,heavy poles sphere,stripes-4,left,left,0.6823550339504436,1.1598030318964447
BKF1975w,2019-04-15-14-52-55,3,47,0.6096193850517104,right,stripes-2,heavy poles sphere,right,right,0.9995888723096868,1.9837082100521002
BKF1975w,2019-04-15-14-52-55,4,0,0.5172093010876221,right,stripes-2,heavy poles sphere,right,right,1.3553968750566128,2.6557424462280323
BKF1975w,2019-04-15-14-52-55,4,1,0.539729021926606,right,stripes-2,stripes-4,right,right,1.3693540692620445,3.6876844554553827
BKF1975w,2019-04-15-14-52-55,4,2,0.6169029634254433,left,heavy poles sphere,stripes-4,left,right,0.5952177328517791,1.9438409526719624
BKF1975w,2019-04-15-14-52-55,4,3,0.685172801903089,right,stripes-4,stripes-8,right,right,1.3836866274032218,4.0715878423143295
BKF1975w,2019-04-15-14-52-55,4,4,0.6309807475019316,right,stripes-8,stripes-8,right,right,1.3670057899971653,2.1518634782396475
BKF1975w,2019-04-15-14-52-55,4,5,0.6628525749894246,right,stripes-4,stripes-4,right,right,0.2201750495869419,2.1037254637321894
BKF1975w,2019-04-15-14-52-55,4,6,0.6491769405679532,left,stripes-2,stripes-8,right,right,2.1148000992679954,2.1117066899369092
BKF1975w,2019-04-15-14-52-55,4,7,0.5606971512766314,right,stripes-4,heavy poles sphere,right,right,1.8087932811413339,3.527495175002514
BKF1975w,2019-04-15-14-52-55,4,8,0.5590877024543071,left,heavy poles sphere,stripes-2,right,right,0.9051299530465258,1.4876593275293999
BKF1975w,2019-04-15-14-52-55,4,9,0.6881712457760853,right,stripes-8,stripes-2,right,right,0.6110663632243813,1.8796335054757947
BKF1975w,2019-04-15-14-52-55,4,10,0.6604416987529592,left,heavy poles sphere,heavy poles sphere,left,left,0.4603718932958145,1.5836430267208925
BKF1975w,2019-04-15-14-52-55,4,11,0.5450342174197316,right,stripes-4,stripes-2,right,right,0.3467414243186795,1.6156347942151115
BKF1975w,2019-04-15-14-52-55,4,12,0.6763560958550708,left,stripes-8,stripes-4,left,left,1.3827328236020549,4.647578047398383
BKF1975w,2019-04-15-14-52-55,4,13,0.6207001641923028,left,stripes-8,heavy poles sphere,left,left,0.6406796855026187,1.7036363342340337
BKF1975w,2019-04-15-14-52-55,4,14,0.6081442509408407,right,stripes-2,stripes-2,right,right,1.2160973595155156,2.015731387453343
BKF1975w,2019-04-15-14-52-55,4,15,0.5986199895966832,left,heavy poles sphere,stripes-8,left,left,0.7006219161539775,1.807919090568248
BKF1975w,2019-04-15-14-52-55,4,16,0.6430522617769975,right,stripes-4,heavy poles sphere,right,right,0.1732816137600821,1.543775458350865
BKF1975w,2019-04-15-14-52-55,4,17,0.6580161628894576,right,stripes-4,stripes-4,right,right,0.16450705416718847,1.8477253940700393
BKF1975w,2019-04-15-14-52-55,4,18,0.5759375844009448,left,heavy poles sphere,stripes-2,left,right,0.7002555709050284,1.599847428709836
BKF1975w,2019-04-15-14-52-55,4,19,0.5428635478796826,right,heavy poles sphere,heavy poles sphere,right,right,0.0337560090883926,1.7677557714932846
BKF1975w,2019-04-15-14-52-55,4,20,0.6754887756043905,right,stripes-2,stripes-2,right,right,0.19683655590688431,2.039731666100124
BKF1975w,2019-04-15-14-52-55,4,21,0.5899261069909556,left,stripes-8,stripes-2,left,right,0.6496557660811959,1.7758691680983247
BKF1975w,2019-04-15-14-52-55,4,22,0.5851329359805825,right,stripes-8,stripes-8,right,right,0.015063693693264213,1.607760548286933
BKF1975w,2019-04-15-14-52-55,4,23,0.5717149990617327,left,stripes-8,stripes-4,left,left,0.2057420419423579,1.41578257627134
BKF1975w,2019-04-15-14-52-55,4,24,0.6976191064406788,left,stripes-2,heavy poles sphere,left,left,1.7529032394495516,4.127591084064079
BKF1975w,2019-04-15-14-52-55,4,25,0.5010749361900565,right,stripes-4,stripes-8,right,right,1.644765461292991,2.4637131609997596
BKF1975w,2019-04-15-14-52-55,4,26,0.5875842976552695,left,heavy poles sphere,stripes-8,left,left,0.574228140415471,2.20771402430546
BKF1975w,2019-04-15-14-52-55,4,27,0.5149867360268598,right,stripes-4,stripes-2,right,right,0.2952341530799458,2.5917393189210998
BKF1975w,2019-04-15-14-52-55,4,28,0.5576318116733869,right,stripes-8,heavy poles sphere,right,right,0.38762561630301207,2.431691538544328
BKF1975w,2019-04-15-14-52-55,4,29,0.603739974393505,right,stripes-2,stripes-8,right,right,0.2638764925141004,1.9998728054270032
BKF1975w,2019-04-15-14-52-55,4,30,0.5704130842461724,right,stripes-2,stripes-4,right,right,0.2920769909687806,1.4877734605570367
BKF1975w,2019-04-15-14-52-55,4,31,0.5903349462578142,right,heavy poles sphere,stripes-4,right,right,1.5247111999024128,3.1435619331841735
BKF1975w,2019-04-15-14-52-55,4,32,0.6519135773738708,right,stripes-8,heavy poles sphere,right,right,0.09283524477723404,1.7357102028699956
BKF1975w,2019-04-15-14-52-55,4,33,0.6553834883955492,left,heavy poles sphere,stripes-2,left,left,0.28858769241651316,1.6957524476401886
BKF1975w,2019-04-15-14-52-55,4,34,0.6152093716503789,left,stripes-2,stripes-8,right,right,3.2540632290747453,1.4717749334013206
BKF1975w,2019-04-15-14-52-55,4,35,0.697551489716325,right,heavy poles sphere,stripes-8,right,right,1.4342108618566272,3.4476123184049356
BKF1975w,2019-04-15-14-52-55,4,36,0.5255497950708403,right,stripes-8,stripes-8,right,right,1.8854912975903062,2.071727165463926
BKF1975w,2019-04-15-14-52-55,4,37,0.6828294042108906,right,stripes-2,heavy poles sphere,right,right,0.02578162464487832,1.8316366800536343
BKF1975w,2019-04-15-14-52-55,4,38,0.5633668587297335,right,heavy poles sphere,heavy poles sphere,right,right,1.5287581020456855,2.631827689605416
BKF1975w,2019-04-15-14-52-55,4,39,0.6348478336828391,left,stripes-4,stripes-2,left,right,0.8773436921756002,1.6957592894023037
BKF1975w,2019-04-15-14-52-55,4,40,0.6678434401493503,left,stripes-2,stripes-2,right,left,1.3531107936260014,1.551898184631682
BKF1975w,2019-04-15-14-52-55,4,41,0.6245406915011282,right,stripes-4,heavy poles sphere,right,right,0.0660907976443923,1.2959186402549676
BKF1975w,2019-04-15-14-52-55,4,42,0.5400125433855669,right,stripes-4,stripes-8,right,right,1.412263422759679,2.023862821430157
BKF1975w,2019-04-15-14-52-55,4,43,0.5295119644851668,left,heavy poles sphere,stripes-4,left,right,0.7322125076116208,2.2158675385144306
BKF1975w,2019-04-15-14-52-55,4,44,0.5019770504627924,right,stripes-4,stripes-4,right,right,1.6871368035172054,3.0716624797159966
BKF1975w,2019-04-15-14-52-55,4,45,0.6995676740892101,left,stripes-8,stripes-2,left,left,0.6645244695619112,2.0797208312360453
BKF1975w,2019-04-15-14-52-55,4,46,0.6294699876133364,left,stripes-2,stripes-4,left,right,5.134601091073819,1.9837206496194995
BKF1975w,2019-04-15-14-52-55,4,47,0.6260759588030573,right,stripes-8,stripes-4,right,right,0.5869578603442278,1.375778172664468
BKF1975w,2019-04-15-14-52-55,5,0,0.6708607862280676,right,stripes-4,stripes-4,right,right,0.5675505808349044,1.1358064851192466
BKF1975w,2019-04-15-14-52-55,5,1,0.6764363568763109,left,stripes-8,stripes-4,left,left,1.1100323242153536,2.07974073454443
BKF1975w,2019-04-15-14-52-55,5,2,0.6118404022749058,right,stripes-2,stripes-4,right,right,0.8348327158128086,1.263695496814762
BKF1975w,2019-04-15-14-52-55,5,3,0.5636578609058237,right,stripes-8,stripes-8,right,right,1.2143527102398366,1.5117784040412516
BKF1975w,2019-04-15-14-52-55,5,4,0.6506201445811098,left,stripes-8,heavy poles sphere,left,left,0.19748683427314973,1.5197503005711042
BKF1975w,2019-04-15-14-52-55,5,5,0.5612327294692089,left,stripes-2,stripes-2,left,right,0.7128689808823765,1.2636311220549032
BKF1975w,2019-04-15-14-52-55,5,6,0.5495866451536846,left,stripes-4,stripes-2,left,left,0.6578360253588471,1.3519060215585341
BKF1975w,2019-04-15-14-52-55,5,7,0.539050112428588,left,stripes-2,stripes-8,left,left,0.226285364911746,1.2478319389620083
BKF1975w,2019-04-15-14-52-55,5,8,0.6654358237088911,right,stripes-4,heavy poles sphere,right,right,1.1236082456916847,4.375683009977365
BKF1975w,2019-04-15-14-52-55,5,9,0.5750995471877854,right,heavy poles sphere,stripes-8,right,right,0.3571673364340313,2.359727088339241
BKF1975w,2019-04-15-14-52-55,5,10,0.5135732456000573,right,stripes-4,stripes-8,right,right,1.5368534612780422,5.535533312227017
BKF1975w,2019-04-15-14-52-55,5,11,0.5782885241769864,right,heavy poles sphere,heavy poles sphere,right,right,0.5791175122358254,1.4717764883471318
BKF1975w,2019-04-15-14-52-55,5,12,0.5024232174002589,left,heavy poles sphere,stripes-2,left,left,0.31622436749512417,1.5758844687652527
BKF1975w,2019-04-15-14-52-55,5,13,0.6894791400579351,right,stripes-2,heavy poles sphere,right,right,1.1400026620676726,4.3034902937170045
BKF1975w,2019-04-15-14-52-55,5,14,0.5393496983714381,right,stripes-8,stripes-2,right,right,0.15945845588885277,1.8317501911033105
BKF1975w,2019-04-15-14-52-55,5,15,0.6264013693301671,left,heavy poles sphere,stripes-4,left,left,0.013858610637726088,2.2237564009346897
BKF1975w,2019-04-15-14-52-55,5,16,0.5007661044910506,right,stripes-8,stripes-8,right,right,1.6540180112488088,3.0236205608625824
BKF1975w,2019-04-15-14-52-55,5,17,0.5631793199589721,right,stripes-4,stripes-4,right,right,0.5603179055742658,1.1356935960484407
BKF1975w,2019-04-15-14-52-55,5,18,0.5287682296850995,right,stripes-8,stripes-2,right,left,0.9255078297746877,1.0797481982845056
BKF1975w,2019-04-15-14-52-55,5,19,0.6099634016970894,left,stripes-2,heavy poles sphere,left,right,0.27654277065266797,0.8318301153212815
BKF1975w,2019-04-15-14-52-55,5,20,0.5297345169106653,right,stripes-2,stripes-2,right,right,0.28976571941439033,0.8878302471812276
BKF1975w,2019-04-15-14-52-55,5,21,0.5313472285361925,right,heavy poles sphere,stripes-4,right,right,0.3569869627117441,1.0076786337376689
BKF1975w,2019-04-15-14-52-55,5,22,0.6265968642519365,right,stripes-8,stripes-4,right,right,0.33185499445426103,1.0238152400861509
BKF1975w,2019-04-15-14-52-55,5,23,0.6368481554516845,left,stripes-4,stripes-2,left,right,0.4425845564019255,0.8879565087863739
BKF1975w,2019-04-15-14-52-55,5,24,0.5691184769760812,right,stripes-4,heavy poles sphere,right,right,0.32627304974084836,0.8798036165544545
BKF1975w,2019-04-15-14-52-55,5,25,0.5150143961557375,right,heavy poles sphere,heavy poles sphere,right,right,0.16205210561383865,0.8398082316343789
BKF1975w,2019-04-15-14-52-55,5,26,0.6080269950049496,left,stripes-8,heavy poles sphere,left,left,0.39335870175636956,0.8638231267714218
BKF1975w,2019-04-15-14-52-55,5,27,0.5317399307309874,right,heavy poles sphere,stripes-2,right,right,0.3129596031285473,0.7998321280429082
BKF1975w,2019-04-15-14-52-55,5,28,0.5544332942455636,right,stripes-4,stripes-8,right,right,0.5407361611369197,0.8799404517922085
BKF1975w,2019-04-15-14-52-55,5,29,0.5756366562510039,right,heavy poles sphere,stripes-8,right,right,0.0608842168639967,0.9117244785174989
BKF1975w,2019-04-15-14-52-55,5,30,0.6583806685645847,right,stripes-2,stripes-8,right,right,0.7381384063546648,2.087746217905078
BKF1975w,2019-04-15-14-52-55,5,31,0.6990649275500863,right,stripes-2,stripes-4,right,right,1.0423589026559057,4.047762339583642
BKF1975w,2019-04-15-14-52-55,5,32,0.6398505540770341,left,stripes-4,stripes-2,left,right,0.9207826602387286,1.0317774959530652
BKF1975w,2019-04-15-14-52-55,5,33,0.5964978148036658,left,stripes-8,stripes-4,left,left,0.2005578523830991,1.1759097832846237
BKF1975w,2019-04-15-14-52-55,5,34,0.6119669816677884,left,stripes-4,stripes-8,left,left,0.271419845960736,1.111938998851656
BKF1975w,2019-04-15-14-52-55,5,35,0.5841754041586631,right,stripes-8,stripes-2,right,right,0.6549348073385772,0.9758958509692093
BKF1975w,2019-04-15-14-52-55,5,36,0.6367808259482728,left,heavy poles sphere,stripes-2,left,right,0.9555562259101862,1.1359025807751095
BKF1975w,2019-04-15-14-52-55,5,37,0.5057383664373026,left,stripes-8,heavy poles sphere,left,left,0.33078799059330777,1.143667047525014
BKF1975w,2019-04-15-14-52-55,5,38,0.6301189637668048,left,stripes-4,stripes-4,left,left,0.13279517693081289,1.0798987170446708
BKF1975w,2019-04-15-14-52-55,5,39,0.5991559977382896,right,stripes-8,stripes-8,right,right,0.8751064360449163,2.0397357089586876
BKF1975w,2019-04-15-14-52-55,5,40,0.5761026475730888,right,heavy poles sphere,stripes-4,right,right,0.3813856184924589,1.4158114982656116
BKF1975w,2019-04-15-14-52-55,5,41,0.5080364034726749,left,stripes-2,stripes-8,left,right,0.7433225959130141,1.1358341631557778
BKF1975w,2019-04-15-14-52-55,5,42,0.5150587954444388,left,stripes-2,heavy poles sphere,right,right,0.7664570806946358,1.3278003175819322
BKF1975w,2019-04-15-14-52-55,5,43,0.6286552882480143,right,stripes-2,stripes-2,right,right,2.735449904930647,1.0636719238345904
BKF1975w,2019-04-15-14-52-55,5,44,0.6084411417871771,right,stripes-2,stripes-4,right,right,0.23566044460221747,1.3679347146644432
BKF1975w,2019-04-15-14-52-55,5,45,0.6515488906781896,left,heavy poles sphere,heavy poles sphere,left,left,0.9375431108746852,3.039688749592642
BKF1975w,2019-04-15-14-52-55,5,46,0.6397907313606549,right,heavy poles sphere,stripes-8,right,right,0.14248062381921045,1.4476533689767166
BKF1975w,2019-04-15-14-52-55,5,47,0.5501775153742223,left,stripes-4,heavy poles sphere,left,left,0.14390402127719426,1.1357181641942589
BKF1975w,2019-04-15-14-52-55,6,0,0.6897431386544837,right,heavy poles sphere,stripes-8,right,right,0.046978957850114966,1.2077015847389703
BKF1975w,2019-04-15-14-52-55,6,1,0.5075407138869423,left,heavy poles sphere,heavy poles sphere,left,left,0.14539583635269082,0.9116986664157594
BKF1975w,2019-04-15-14-52-55,6,2,0.6539771744029359,right,stripes-2,stripes-4,right,right,0.8676619771576952,1.4559163513749809
BKF1975w,2019-04-15-14-52-55,6,3,0.541535527393241,left,stripes-4,stripes-8,left,left,0.1265060428304423,0.9438282021155828
BKF1975w,2019-04-15-14-52-55,6,4,0.5893314341925406,left,stripes-4,heavy poles sphere,left,left,0.11572187118417787,0.8957741546846592
BKF1975w,2019-04-15-14-52-55,6,5,0.551794438718243,right,stripes-2,stripes-8,right,right,0.860280649071683,1.207746056191354
BKF1975w,2019-04-15-14-52-55,6,6,0.5085323631271843,right,stripes-4,stripes-4,right,right,0.027317911172758613,1.2397645687542536
BKF1975w,2019-04-15-14-52-55,6,7,0.6138327844014132,left,stripes-8,stripes-4,left,left,0.926160285064725,2.311757007984852
BKF1975w,2019-04-15-14-52-55,6,8,0.6824334963891833,right,heavy poles sphere,stripes-2,right,right,0.6476377573208083,1.23165987984612
BKF1975w,2019-04-15-14-52-55,6,9,0.6513637889766215,left,stripes-8,stripes-2,left,left,0.511863615074617,1.2879019612846605
BKF1975w,2019-04-15-14-52-55,6,10,0.5555954912373864,right,stripes-8,heavy poles sphere,right,right,1.1685181925558936,1.3438420722332012
BKF1975w,2019-04-15-14-52-55,6,11,0.6351732709897406,right,stripes-2,heavy poles sphere,right,right,0.17705982125607989,1.0078235546934593
BKF1975w,2019-04-15-14-52-55,6,12,0.5128557175809916,right,stripes-8,stripes-8,right,right,1.2194289865547034,1.7518110454648195
BKF1975w,2019-04-15-14-52-55,6,13,0.565857286371417,left,stripes-2,stripes-2,right,left,0.7550332043138042,1.32791538357651
BKF1975w,2019-04-15-14-52-55,6,14,0.5434533717427201,right,heavy poles sphere,stripes-4,right,right,0.5927263985649915,1.4638136105040758
BKF1975w,2019-04-15-14-52-55,6,15,0.5845127083585506,left,stripes-4,stripes-2,left,left,0.6930567934650753,1.3597979938713252
BKF1975w,2019-04-15-14-52-55,6,16,0.6345281569325751,left,stripes-2,stripes-4,left,right,0.6713338885529083,1.3278289285863139
BKF1975w,2019-04-15-14-52-55,6,17,0.6814107624761317,right,heavy poles sphere,heavy poles sphere,right,right,0.4685064371651606,1.2716736131278594
BKF1975w,2019-04-15-14-52-55,6,18,0.6132001700405022,left,stripes-8,stripes-2,left,right,0.7402388272466851,1.3198943507568401
BKF1975w,2019-04-15-14-52-55,6,19,0.5497968144533876,right,stripes-8,heavy poles sphere,right,right,0.46664827684071497,1.5837674223912472
BKF1975w,2019-04-15-14-52-55,6,20,0.6206270825118274,right,stripes-2,stripes-2,right,right,0.7975930059774328,1.743789079677299
BKF1975w,2019-04-15-14-52-55,6,21,0.6691100009110635,left,stripes-4,stripes-8,left,left,0.2668100534092446,1.2797633745558414
BKF1975w,2019-04-15-14-52-55,6,22,0.6874773444339283,left,stripes-8,stripes-8,left,left,0.5434420779547509,1.3839214242307207
BKF1975w,2019-04-15-14-52-55,6,23,0.671239843863888,right,stripes-4,stripes-2,right,right,0.6610609831113834,1.3837911197661015
BKF1975w,2019-04-15-14-52-55,6,24,0.6765549510641019,right,stripes-8,stripes-4,right,right,0.6700675406291339,1.2717171516123926
BKF1975w,2019-04-15-14-52-55,6,25,0.6859216992846959,right,stripes-2,stripes-8,right,right,0.47516875827568583,1.1436863288536188
BKF1975w,2019-04-15-14-52-55,6,26,0.5213488231201164,right,stripes-4,heavy poles sphere,right,right,0.26843061800445867,1.031801753108084
BKF1975w,2019-04-15-14-52-55,6,27,0.5262191820015584,left,heavy poles sphere,stripes-2,left,left,0.618806261829377,0.9278511332131529
BKF1975w,2019-04-15-14-52-55,6,28,0.6411151678996804,left,heavy poles sphere,stripes-8,left,left,0.12303913549931167,0.9597651534140823
BKF1975w,2019-04-15-14-52-55,6,29,0.577777941820233,right,heavy poles sphere,stripes-4,right,right,1.0320122927805642,2.263845704585947
BKF1975w,2019-04-15-14-52-55,6,30,0.5470367849965679,left,stripes-4,stripes-4,left,right,4.419078750544941,1.0318984707419077
BKF1975w,2019-04-15-14-52-55,6,31,0.5473205400852194,right,stripes-2,heavy poles sphere,right,right,0.3196589319513805,1.279791985560223
BKF1975w,2019-04-15-14-52-55,6,32,0.6253401179013984,right,stripes-4,heavy poles sphere,right,right,0.061564661180455005,0.9038200666391276
BKF1975w,2019-04-15-14-52-55,6,33,0.5084832447780174,right,heavy poles sphere,stripes-4,right,right,1.0581232549620836,1.3997921348345699
BKF1975w,2019-04-15-14-52-55,6,34,0.574071738348317,left,stripes-2,stripes-2,right,left,0.606192851852029,1.1277776775696111
BKF1975w,2019-04-15-14-52-55,6,35,0.5917183569687718,left,stripes-8,stripes-4,left,left,0.39957071054232074,1.3036457883044932
BKF1975w,2019-04-15-14-52-55,6,36,0.569497491525892,left,heavy poles sphere,heavy poles sphere,left,left,1.3568286692216134,1.9036459127000853
BKF1975w,2019-04-15-14-52-55,6,37,0.6214279559538693,left,stripes-8,heavy poles sphere,left,left,0.591392255001665,1.4237641134659498
BKF1975w,2019-04-15-14-52-55,6,38,0.6120104998894985,left,stripes-8,stripes-2,left,left,0.5564034848202937,1.0398056815238306
BKF1975w,2019-04-15-14-52-55,6,39,0.5427487624635023,right,heavy poles sphere,stripes-8,right,right,0.19786126524013525,1.399799909563626
BKF1975w,2019-04-15-14-52-55,6,40,0.6112884168211095,left,stripes-4,stripes-2,left,right,0.5160523282829672,1.2556128881378754
BKF1975w,2019-04-15-14-52-55,6,41,0.5358692325055744,left,stripes-4,stripes-8,left,left,0.6859407391466448,1.199661270589786
BKF1975w,2019-04-15-14-52-55,6,42,0.6742388762492982,left,stripes-2,heavy poles sphere,left,right,0.8221707915236038,1.0558222460504112
BKF1975w,2019-04-15-14-52-55,6,43,0.6221628625363135,left,heavy poles sphere,stripes-2,left,left,0.30545232442636916,1.335659947019849
BKF1975w,2019-04-15-14-52-55,6,44,0.5786358611985499,right,stripes-4,stripes-4,right,right,0.19874696241367928,1.5917582892607243
BKF1975w,2019-04-15-14-52-55,6,45,0.5411181014063675,right,stripes-2,stripes-8,right,left,0.3592036935560827,1.4478206811527343
BKF1975w,2019-04-15-14-52-55,6,46,0.6262973932133297,left,stripes-2,stripes-4,left,right,2.899546142397412,0.815831277176585
BKF1975w,2019-04-15-14-52-55,6,47,0.5140739164379343,right,stripes-8,stripes-8,right,right,0.6155278139394795,1.1116824327818904
BKF1975w,2019-04-15-14-52-55,7,0,0.5794342050583068,left,stripes-4,stripes-8,left,left,0.3502058437352389,0.8557728609694095
BKF1975w,2019-04-15-14-52-55,7,1,0.5536353162143497,left,heavy poles sphere,stripes-4,left,right,0.35193587651974667,0.6798462842698427
BKF1975w,2019-04-15-14-52-55,7,2,0.528692979403351,right,stripes-2,stripes-4,right,right,0.8564514393510763,2.0877639442878717
BKF1975w,2019-04-15-14-52-55,7,3,0.6743418881436988,right,stripes-8,stripes-4,right,right,0.6366299844567038,1.0159366403095191
BKF1975w,2019-04-15-14-52-55,7,4,0.5884534614080648,right,heavy poles sphere,heavy poles sphere,right,right,0.779292847932993,1.7358824908733368
BKF1975w,2019-04-15-14-52-55,7,5,0.6381193879190754,right,stripes-8,stripes-8,right,right,0.13871609984744282,1.6876374960893372
BKF1975w,2019-04-15-14-52-55,7,6,0.6727336797211412,right,stripes-4,stripes-2,right,right,0.5323326116313183,1.4557776502033448
BKF1975w,2019-04-15-14-52-55,7,7,0.5670818612334221,left,stripes-4,stripes-4,left,right,0.49208843536962377,1.1359262159521677
BKF1975w,2019-04-15-14-52-55,7,8,0.6635208093676437,left,stripes-2,stripes-8,left,left,0.6627838631447958,1.6796363665762328
BKF1975w,2019-04-15-14-52-55,7,9,0.5968051536789232,right,heavy poles sphere,stripes-2,right,right,0.6635588481713057,1.5196862368011352
BKF1975w,2019-04-15-14-52-55,7,10,0.5547810538967609,right,stripes-8,stripes-2,right,right,0.711656745075743,1.3757837704697522
BKF1975w,2019-04-15-14-52-55,7,11,0.6426467898178843,left,stripes-2,stripes-2,left,right,1.0239054269477492,1.4877666187958312
BKF1975w,2019-04-15-14-52-55,7,12,0.5730711123487585,left,stripes-8,heavy poles sphere,left,left,1.251321859491327,3.3755430648479887
BKF1975w,2019-04-15-14-52-55,7,13,0.5394571939450516,left,stripes-2,heavy poles sphere,right,right,0.3061570258987558,1.5837767520661146
BKF1975w,2019-04-15-14-52-55,7,14,0.6522231240383669,right,heavy poles sphere,stripes-8,right,right,0.47529937373019493,2.0716425764085216
BKF1975w,2019-04-15-14-52-55,7,15,0.5896117390056355,right,stripes-4,heavy poles sphere,right,right,0.23657164288761123,2.1357993323681512
BKF1975w,2019-04-15-14-52-55,7,16,0.5350811047506735,left,stripes-4,stripes-4,left,left,0.7260207131230345,1.6957592894023037
BKF1975w,2019-04-15-14-52-55,7,17,0.5969481638690939,right,heavy poles sphere,stripes-8,right,right,0.06068176291046257,1.7197517933191193
BKF1975w,2019-04-15-14-52-55,7,18,0.6941870274834477,left,stripes-4,stripes-8,left,left,0.20778150895694125,2.007868026145843
BKF1975w,2019-04-15-14-52-55,7,19,0.5355348514109115,right,stripes-2,stripes-4,right,right,0.3034775431606249,2.0315787738700237
BKF1975w,2019-04-15-14-52-55,7,20,0.6193546987580881,right,stripes-4,heavy poles sphere,right,right,0.2160905177534005,2.0477318626444685
BKF1975w,2019-04-15-14-52-55,7,21,0.6395356639248215,left,heavy poles sphere,stripes-2,left,left,0.9148244186208103,1.567730021589341
BKF1975w,2019-04-15-14-52-55,7,22,0.6038527277857042,left,stripes-2,stripes-8,right,right,1.3494759521399828,1.5118362480279757
BKF1975w,2019-04-15-14-52-55,7,23,0.6046326313445219,left,heavy poles sphere,stripes-4,left,left,0.16185680441230943,1.5758092093847154
BKF1975w,2019-04-15-14-52-55,7,24,0.5339328462119831,right,stripes-2,heavy poles sphere,right,right,0.07065363082983822,1.7516145003064594
BKF1975w,2019-04-15-14-52-55,7,25,0.5600553957796003,right,heavy poles sphere,heavy poles sphere,right,right,0.7749903126878053,1.0639179162726577
BKF1975w,2019-04-15-14-52-55,7,26,0.6077466616843435,right,stripes-8,heavy poles sphere,right,right,0.4203192863669756,1.4397831659071016
BKF1975w,2019-04-15-14-52-55,7,27,0.616183704908971,left,stripes-2,stripes-2,right,left,2.8791807052366494,1.391769858058069
BKF1975w,2019-04-15-14-52-55,7,28,0.6570686271306796,right,stripes-4,stripes-2,right,right,0.5264138656393698,1.7197527262860604
BKF1975w,2019-04-15-14-52-55,7,29,0.5953916908940546,right,stripes-8,stripes-8,right,right,0.08261240859246755,1.4477902042144706
BKF1975w,2019-04-15-14-52-55,7,30,0.5900558418816538,left,stripes-8,stripes-4,left,left,1.1879332467960921,1.183798334714993
BKF1975w,2019-04-15-14-52-55,7,31,0.5835707760489189,right,stripes-8,stripes-2,right,right,0.5793778101760836,1.4877980287019454
BKF1975w,2019-04-15-14-52-55,7,32,0.6490126198064696,right,stripes-8,stripes-8,right,right,0.5324691358791824,1.6637009702235446
BKF1975w,2019-04-15-14-52-55,7,33,0.6086442167879265,left,stripes-8,heavy poles sphere,left,left,0.2353124477149322,1.4797036024365298
BKF1975w,2019-04-15-14-52-55,7,34,0.6415993338772022,right,stripes-2,stripes-8,right,right,1.7230187346103776,2.7917887040021014
BKF1975w,2019-04-15-14-52-55,7,35,0.5158697054731713,left,heavy poles sphere,stripes-8,left,left,0.7187700004915314,2.407706498367588
BKF1975w,2019-04-15-14-52-55,7,36,0.5780163578066865,left,stripes-8,stripes-4,left,left,0.6628364203161254,1.4077711841164273
BKF1975w,2019-04-15-14-52-55,7,37,0.6992427029396525,right,stripes-4,stripes-2,right,right,0.5817008993180934,1.7277566547018068
BKF1975w,2019-04-15-14-52-55,7,38,0.5262885203150112,left,heavy poles sphere,heavy poles sphere,left,left,0.45189837122597964,2.0557864822958436
BKF1975w,2019-04-15-14-52-55,7,39,0.6233054170094601,right,stripes-4,heavy poles sphere,right,right,0.5251683539900114,1.6478097343342597
BKF1975w,2019-04-15-14-52-55,7,40,0.6831723420568606,left,stripes-2,heavy poles sphere,left,left,0.1855336543158046,1.4956153636121599
BKF1975w,2019-04-15-14-52-55,7,41,0.5973208364007315,left,stripes-2,stripes-4,right,right,0.6526089192948348,1.8317638746266312
BKF1975w,2019-04-15-14-52-55,7,42,0.5597538598416338,right,heavy poles sphere,stripes-2,right,right,0.13728897051987587,1.5758191610375434
BKF1975w,2019-04-15-14-52-55,7,43,0.599812520537438,right,stripes-8,stripes-2,right,right,0.4426906037115259,1.7196162020391057
BKF1975w,2019-04-15-14-52-55,7,44,0.5432041179729438,right,stripes-4,stripes-8,right,right,1.5400597596799344,1.7357891941210255
BKF1975w,2019-04-15-14-52-55,7,45,0.5090453839835888,right,stripes-4,stripes-4,right,right,0.5535442503387458,1.4957758340260625
BKF1975w,2019-04-15-14-52-55,7,46,0.5488309383005183,right,stripes-2,stripes-2,right,right,0.7031695394807684,1.6077698779618004
BKF1975w,2019-04-15-14-52-55,7,47,0.6131417488487686,left,heavy poles sphere,stripes-4,left,right,0.7206287827948472,1.487849963894405
BKF1975w,2019-04-15-14-52-55,8,0,0.6476360626014632,left,stripes-4,stripes-4,right,left,0.8428730299610834,1.2238773757235322
BKF1975w,2019-04-15-14-52-55,8,1,0.562878420285464,right,heavy poles sphere,heavy poles sphere,right,right,1.3218607353155676,3.959600951129687
BKF1975w,2019-04-15-14-52-55,8,2,0.5207210831073215,right,stripes-8,heavy poles sphere,right,right,0.5182864745202096,1.4317680418816963
BKF1975w,2019-04-15-14-52-55,8,3,0.6005893196356114,left,stripes-4,stripes-8,left,right,0.5499915099953796,1.4319017672269183
BKF1975w,2019-04-15-14-52-55,8,4,0.5765856273336369,right,heavy poles sphere,stripes-8,right,right,0.02242636242772278,1.7117798967892668
BKF1975w,2019-04-15-14-52-55,8,5,0.6878098683332496,left,heavy poles sphere,stripes-2,left,right,0.46826448758656625,1.7997758390019953
BKF1975w,2019-04-15-14-52-55,8,6,0.6576679397951142,right,stripes-4,heavy poles sphere,right,right,0.42173739700865553,1.8876747525928295
BKF1975w,2019-04-15-14-52-55,8,7,0.5141644174382708,right,stripes-8,stripes-4,right,right,0.45933847626565694,2.023624292733075
BKF1975w,2019-04-15-14-52-55,8,8,0.610987915890539,left,stripes-2,stripes-2,left,right,0.709857050715982,1.4077419511331755
BKF1975w,2019-04-15-14-52-55,8,9,0.67185654503508,left,stripes-4,stripes-2,left,right,0.6600275660803163,1.5037539503400694
BKF1975w,2019-04-15-14-52-55,8,10,0.5298904579813166,left,stripes-8,stripes-8,left,left,0.7502884424602598,1.5918833069090397
BKF1975w,2019-04-15-14-52-55,8,11,0.5739498181573804,right,stripes-8,stripes-2,right,right,0.1191296905717536,1.823697437386727
BKF1975w,2019-04-15-14-52-55,8,12,0.6221813460885751,left,stripes-2,stripes-8,left,right,1.9580833239524509,1.5116804424505972
BKF1975w,2019-04-15-14-52-55,8,13,0.5529099897671133,left,stripes-2,heavy poles sphere,left,right,0.10731832167857647,1.3678336431821663
BKF1975w,2019-04-15-14-52-55,8,14,0.6780864558938196,right,heavy poles sphere,stripes-4,right,right,0.004735121189696656,1.8159432332795404
BKF1975w,2019-04-15-14-52-55,8,15,0.5883144316812975,right,stripes-2,stripes-4,right,right,1.6666566113499357,1.343779563408134
BKF1975w,2019-04-15-14-52-55,8,16,0.5948704346354895,left,stripes-4,stripes-2,left,left,0.5355196287036961,1.3437895150618715
BKF1975w,2019-04-15-14-52-55,8,17,0.6126785658162844,left,heavy poles sphere,stripes-4,left,left,0.346660567132858,1.5756677093095277
BKF1975w,2019-04-15-14-52-55,8,18,0.5619038459144338,left,stripes-8,stripes-8,left,left,0.37297553821281326,1.3679185432274608
BKF1975w,2019-04-15-14-52-55,8,19,0.5265571002866347,left,stripes-2,heavy poles sphere,left,left,1.2736919328790464,1.8076472860284412
BKF1975w,2019-04-15-14-52-55,8,20,0.5942333565022796,right,stripes-4,stripes-4,right,right,1.9476508810630548,1.5277697784449629
BKF1975w,2019-04-15-14-52-55,8,21,0.5561415635067242,left,heavy poles sphere,heavy poles sphere,left,left,0.5855907519280663,1.89590632508407
BKF1975w,2019-04-15-14-52-55,8,22,0.5760797249931198,left,stripes-2,stripes-8,right,right,1.4928553346780973,1.2399014039920075
BKF1975w,2019-04-15-14-52-55,8,23,0.5160410213706109,left,heavy poles sphere,stripes-8,left,left,0.6415429914550259,1.5276590662979288
BKF1975w,2019-04-15-14-52-55,8,24,0.6823524741775169,right,stripes-8,heavy poles sphere,right,right,0.1822769756672642,1.7357720897161926
BKF1975w,2019-04-15-14-52-55,8,25,0.6990565995379503,left,stripes-8,stripes-4,left,right,1.227232948929668,1.5277996334061754
BKF1975w,2019-04-15-14-52-55,8,26,0.6164319426450848,left,stripes-4,heavy poles sphere,left,left,0.2270311169550041,1.7038080002585048
BKF1975w,2019-04-15-14-52-55,8,27,0.6442734261907505,right,stripes-4,stripes-8,right,right,0.2742025771058252,1.775645877869465
BKF1975w,2019-04-15-14-52-55,8,28,0.521056626700875,right,stripes-2,stripes-2,right,right,0.7532465714994032,2.0395730616201035
BKF1975w,2019-04-15-14-52-55,8,29,0.5922748943056154,right,stripes-2,stripes-4,right,right,1.0067814299654856,2.063834571174084
BKF1975w,2019-04-15-14-52-55,8,30,0.6815323446207183,left,heavy poles sphere,stripes-2,left,right,0.8309854687204279,2.14368788379943
BKF1975w,2019-04-15-14-52-55,8,31,0.6779949960209852,left,stripes-8,stripes-2,left,right,0.5138433721676847,1.5196405213919206
BKF1975w,2019-04-15-14-52-55,8,32,0.6143474900978586,left,stripes-2,stripes-2,left,right,0.7494556134479353,1.5596066733305634
BKF1975w,2019-04-15-14-52-55,8,33,0.5871772676965608,right,heavy poles sphere,stripes-8,right,right,0.28006410108901036,1.455793199661457
BKF1975w,2019-04-15-14-52-55,8,34,0.6237329861583812,right,stripes-4,stripes-4,right,right,0.3600747742375461,1.5357267474946639
BKF1975w,2019-04-15-14-52-55,8,35,0.6483227299917682,left,stripes-2,heavy poles sphere,left,right,0.31310514606229845,1.5037523953942582
BKF1975w,2019-04-15-14-52-55,8,36,0.6096993683664024,right,heavy poles sphere,stripes-4,right,right,1.3590752550271645,7.119273989549583
BKF1975w,2019-04-15-14-52-55,8,37,0.5213451461257169,right,stripes-8,stripes-4,right,right,0.6641077440663139,1.9837756947035814
BKF1975w,2019-04-15-14-52-55,8,38,0.5216854465720698,left,stripes-4,stripes-2,right,right,0.974469343619603,1.7758906263507015
BKF1975w,2019-04-15-14-52-55,8,39,0.6334915884593124,left,heavy poles sphere,stripes-2,left,right,0.8695453276050102,2.119843099741047
BKF1975w,2019-04-15-14-52-55,8,40,0.6245169973427273,left,stripes-4,stripes-8,left,left,0.6337579994187763,1.959731877572267
BKF1975w,2019-04-15-14-52-55,8,41,0.5496521726026112,right,stripes-4,heavy poles sphere,right,right,0.03433973577193683,2.071722189637512
BKF1975w,2019-04-15-14-52-55,8,42,0.5690168437644332,left,stripes-8,stripes-8,left,left,0.7414016157754304,1.815582796824856
BKF1975w,2019-04-15-14-52-55,8,43,0.6617907549579536,right,stripes-2,stripes-4,right,right,1.6816857852445537,2.303736286155072
BKF1975w,2019-04-15-14-52-55,8,44,0.6372872571627457,right,heavy poles sphere,heavy poles sphere,right,right,1.1272076344112065,1.8716687616970376
BKF1975w,2019-04-15-14-52-55,8,45,0.551560552556458,right,stripes-8,stripes-2,right,right,1.2380180535428735,1.9597667083598935
BKF1975w,2019-04-15-14-52-55,8,46,0.6592005405013809,left,stripes-8,heavy poles sphere,left,left,0.9854407307502697,1.7436827213787183
BKF1975w,2019-04-15-14-52-55,8,47,0.6930611141717717,left,stripes-2,stripes-8,right,right,2.74950101786726,1.7837421700696723
BKF1975w,2019-04-15-14-52-55,9,0,0.5334323687864145,left,stripes-2,stripes-8,left,right,0.9363050629654026,1.599759729762809
BKF1975w,2019-04-15-14-52-55,9,1,0.5262536024495802,left,heavy poles sphere,stripes-8,left,left,1.012297133986067,1.9118594478195519
BKF1975w,2019-04-15-14-52-55,9,2,0.6354262374456537,left,stripes-4,stripes-2,left,right,1.0752895464720496,1.3276494878318772
BKF1975w,2019-04-15-14-52-55,9,3,0.6745236782337563,left,stripes-4,stripes-4,left,left,1.2697429923255186,1.495806621954216
BKF1975w,2019-04-15-14-52-55,9,4,0.5687268748906864,right,stripes-2,stripes-4,right,right,1.0455636461119866,1.3037950631096464
BKF1975w,2019-04-15-14-52-55,9,5,0.659848079792873,left,stripes-4,stripes-8,left,left,0.9390386578197649,1.4156270816838514
BKF1975w,2019-04-15-14-52-55,9,6,0.6047035178619486,left,heavy poles sphere,stripes-2,left,left,0.85099544525292,1.175770460133208
BKF1975w,2019-04-15-14-52-55,9,7,0.5244649555804435,right,heavy poles sphere,heavy poles sphere,right,right,0.7247304190332216,0.767825744057518
BKF1975w,2019-04-15-14-52-55,9,8,0.5325054466615508,right,stripes-4,heavy poles sphere,right,right,0.7949483540269284,0.7838018799920974
BKF1975w,2019-04-15-14-52-55,9,9,0.6126889967517436,right,stripes-2,heavy poles sphere,right,right,0.6424887095381564,0.5916382474397324
BKF1975w,2019-04-15-14-52-55,9,10,0.5780113977702911,right,stripes-8,stripes-2,right,right,0.8161061916071048,0.5996997088514036
BKF1975w,2019-04-15-14-52-55,9,11,0.6186839194579212,left,stripes-2,stripes-2,right,right,0.620796592554143,0.48782197486798395
BKF1975w,2019-04-15-14-52-55,9,12,0.6523501590901274,right,stripes-8,stripes-8,right,right,0.7491981144103192,0.47185734553295333
BKF1975w,2019-04-15-14-52-55,9,13,0.5992631344967316,right,heavy poles sphere,stripes-4,right,right,0.8602349336624684,0.4717976356114377
BKF1975w,2019-04-15-14-52-55,9,14,0.5441638957229243,right,stripes-8,stripes-4,right,right,1.3038214971893467,0.3838390120999975
BKF1975w,2019-04-15-14-52-55,9,15,0.5057605353800221,left,stripes-8,heavy poles sphere,right,right,0.8232371734065964,0.3759566804519636
BKF1975w,2019-04-15-14-52-55,9,16,0.5728149415089937,right,stripes-2,stripes-4,right,right,0.9269716558246728,0.5038145932285261
BKF1975w,2019-04-15-14-52-55,9,17,0.6231588700508821,right,stripes-4,stripes-4,right,right,0.6912406166784422,0.43970541861381207
BKF1975w,2019-04-15-14-52-55,9,18,0.6606116238707016,left,stripes-8,heavy poles sphere,left,left,0.9388091478085698,0.45595491403310007
BKF1975w,2019-04-15-14-52-55,9,19,0.69867013337895,left,heavy poles sphere,stripes-8,left,left,0.7262387165355904,0.4078060149040539
BKF1975w,2019-04-15-14-52-55,9,20,0.6859137525863434,right,stripes-4,stripes-8,right,right,0.6280892887243681,0.3917412470545969
BKF1975w,2019-04-15-14-52-55,9,21,0.6280703754563082,right,heavy poles sphere,stripes-4,right,right,0.6738504129625653,0.38387042200611177
BKF1975w,2019-04-15-14-52-55,9,22,0.60748414740846,right,stripes-2,heavy poles sphere,right,right,0.7510898615664701,0.4077556346574056
BKF1975w,2019-04-15-14-52-55,9,23,0.5882568701394398,right,stripes-2,stripes-8,right,right,0.59936726142314,0.35996157417685026
BKF1975w,2019-04-15-14-52-55,9,24,0.654365579881043,left,stripes-4,stripes-2,left,right,0.8772021921004125,0.5678167875685176
BKF1975w,2019-04-15-14-52-55,9,25,0.6705572502450194,right,stripes-4,heavy poles sphere,right,right,0.8480320293974728,0.43979311755992967
BKF1975w,2019-04-15-14-52-55,9,26,0.5827550526871249,left,stripes-8,stripes-8,left,left,0.8756071286179576,0.42394635312302853
BKF1975w,2019-04-15-14-52-55,9,27,0.614068832093961,right,stripes-8,stripes-2,right,right,0.9893358701765465,0.4478091745540951
BKF1975w,2019-04-15-14-52-55,9,28,0.6720133275435176,right,stripes-8,stripes-4,right,right,0.8313225809861251,0.367949020166634
BKF1975w,2019-04-15-14-52-55,9,29,0.6156717342800969,left,heavy poles sphere,stripes-2,left,right,0.9904426806515403,0.3917636382748242
BKF1975w,2019-04-15-14-52-55,9,30,0.508213872562402,right,stripes-2,stripes-2,right,right,1.138004867602831,0.35178908962825517
BKF1975w,2019-04-15-14-52-55,9,31,0.5635877126169759,right,heavy poles sphere,heavy poles sphere,right,right,0.6882871524776419,0.38385362859116867
BKF1975w,2019-04-15-14-52-55,9,32,0.6155361884493521,right,heavy poles sphere,stripes-2,right,right,0.6526907094475973,0.4079901204959242
BKF1975w,2019-04-15-14-52-55,9,33,0.6362926794969737,right,stripes-8,stripes-8,right,right,0.6792243059189786,0.4077167610103061
BKF1975w,2019-04-15-14-52-55,9,34,0.5923620579208997,right,stripes-2,stripes-2,right,right,0.602258216800692,0.383834036272674
BKF1975w,2019-04-15-14-52-55,9,35,0.5589509286452291,right,stripes-4,stripes-4,right,right,0.6667626586595361,0.3998779678477149
BKF1975w,2019-04-15-14-52-55,9,36,0.572619582824385,left,stripes-2,stripes-8,left,right,1.455903911808491,0.4559838360264621
BKF1975w,2019-04-15-14-52-55,9,37,0.5987477504037689,right,stripes-2,stripes-4,right,left,0.8177264452133386,0.407851730312359
BKF1975w,2019-04-15-14-52-55,9,38,0.540091265869674,right,stripes-4,heavy poles sphere,right,right,1.010778262852,0.4078109907304679
BKF1975w,2019-04-15-14-52-55,9,39,0.5290597870343581,left,heavy poles sphere,stripes-8,left,left,0.8203474619867848,0.3278370143043503
BKF1975w,2019-04-15-14-52-55,9,40,0.5519335997581042,left,stripes-4,stripes-2,left,left,0.9588654617291468,0.3837992054850474
BKF1975w,2019-04-15-14-52-55,9,41,0.6858950582998146,right,heavy poles sphere,heavy poles sphere,right,right,0.6623301299368904,0.3678653640781704
BKF1975w,2019-04-15-14-52-55,9,42,0.6072397377174322,right,heavy poles sphere,stripes-4,right,right,0.8128821668233286,0.39183578776373906
BKF1975w,2019-04-15-14-52-55,9,43,0.6003870370546212,left,stripes-4,stripes-8,left,left,0.8033027672436219,0.3838725989307932
BKF1975w,2019-04-15-14-52-55,9,44,0.5870439222726014,right,stripes-8,stripes-2,right,right,0.8031040451605804,0.3757050902086121
BKF1975w,2019-04-15-14-52-55,9,45,0.5039202214964997,left,stripes-2,heavy poles sphere,left,right,3.1673044018025394,0.4238157376694289
BKF1975w,2019-04-15-14-52-55,9,46,0.5649598165588141,right,stripes-8,heavy poles sphere,right,right,0.8066493217638708,0.3597146487718419
BKF1975w,2019-04-15-14-52-55,9,47,0.6335636984877127,left,stripes-8,stripes-4,left,left,0.7501935907621373,0.3838595373854332
