Participant,Session,Block,Trial,OnsetDelay,Bias,Shape1,Shape2,Response1,Response2,RT1,RT2
GKI1987W,2019-05-27-12-57-57,0,0,0.5022243863413003,right,heavy poles sphere,stripes-2,right,right,16.721715378974523,0.6559302836906227
GKI1987W,2019-05-27-12-57-57,0,1,0.6088613791276201,right,stripes-8,stripes-8,right,right,36.56742960604515,0.39183018995845487
GKI1987W,2019-05-27-12-57-57,0,2,0.6756107838775397,right,heavy poles sphere,stripes-8,right,left,5.538653155638258,0.4557086106060524
GKI1987W,2019-05-27-12-57-57,0,3,0.6722224179772279,right,stripes-2,stripes-8,left,right,2.2336654490404726,0.39186222184343933
GKI1987W,2019-05-27-12-57-57,0,4,0.636247161889257,right,stripes-8,stripes-4,right,left,2.7161166408441204,0.3999159085269639
GKI1987W,2019-05-27-12-57-57,0,5,0.6312168212333957,left,stripes-4,stripes-8,right,left,3.882833273105007,0.5917122628629841
GKI1987W,2019-05-27-12-57-57,0,6,0.6645844879056104,right,stripes-2,heavy poles sphere,right,left,1.6491662691189504,0.32783048353235245
GKI1987W,2019-05-27-12-57-57,0,7,0.6502939229899515,left,heavy poles sphere,stripes-4,right,left,1.4941157738064703,0.27995556586643033
GKI1987W,2019-05-27-12-57-57,0,8,0.6032803098873061,left,stripes-8,stripes-2,left,right,2.4279043123624433,0.3998642843237121
GKI1987W,2019-05-27-12-57-57,0,9,0.6628404591267065,left,stripes-4,stripes-4,left,right,2.061021052101296,0.31169232223692234
GKI1987W,2019-05-27-12-57-57,0,10,0.5559864931847291,left,stripes-2,stripes-4,right,left,2.1730611224345466,0.3676908991506025
GKI1987W,2019-05-27-12-57-57,0,11,0.5939491104858957,left,stripes-8,heavy poles sphere,left,right,2.581606980587594,0.2878295008065379
GKI1987W,2019-05-27-12-57-57,0,12,0.6068992475418646,right,stripes-2,stripes-2,left,right,1.2545639216482414,0.3599531774696061
GKI1987W,2019-05-27-12-57-57,0,13,0.6378346203751415,left,stripes-4,stripes-2,right,left,1.906481512004575,0.2878518920269926
GKI1987W,2019-05-27-12-57-57,0,14,0.5125610268440202,right,stripes-4,heavy poles sphere,left,left,2.1247197210054765,0.27989865484732945
GKI1987W,2019-05-27-12-57-57,0,15,0.508882133772389,right,heavy poles sphere,heavy poles sphere,left,left,1.8715117121635103,0.311953864133784
GKI1987W,2019-05-27-12-57-57,0,16,0.6494137339119047,right,heavy poles sphere,heavy poles sphere,right,left,2.341013314690599,0.31980665180981305
GKI1987W,2019-05-27-12-57-57,0,17,0.5341391600184666,left,stripes-8,stripes-8,left,left,1.7304190330351048,0.34369373039612583
GKI1987W,2019-05-27-12-57-57,0,18,0.6251099006870359,right,stripes-8,heavy poles sphere,left,left,1.4132212694205464,0.2878291898173302
GKI1987W,2019-05-27-12-57-57,0,19,0.5704375311818557,left,heavy poles sphere,stripes-4,left,left,0.8412549532799858,0.3198268661062684
GKI1987W,2019-05-27-12-57-57,0,20,0.6560586383322364,right,stripes-8,stripes-2,left,right,0.6462650510986805,0.27192551436064605
GKI1987W,2019-05-27-12-57-57,0,21,0.6174979741437575,right,stripes-8,stripes-4,left,left,3.303317383735248,0.2718250648567846
GKI1987W,2019-05-27-12-57-57,0,22,0.5057168561987461,left,stripes-4,stripes-2,left,left,1.0087083188982433,0.255849861889601
GKI1987W,2019-05-27-12-57-57,0,23,0.6045194000513828,left,stripes-2,heavy poles sphere,left,left,0.5649161915271179,0.22383663614186844
GKI1987W,2019-05-27-12-57-57,0,24,0.5998495172213011,right,stripes-2,stripes-2,right,right,2.739490276301467,0.3517931324881829
GKI1987W,2019-05-27-12-57-57,0,25,0.632823238508604,left,stripes-4,stripes-8,left,left,1.7389230320450224,0.3118391091279591
GKI1987W,2019-05-27-12-57-57,0,26,0.640457512360453,left,stripes-4,stripes-4,right,left,2.324602726877629,0.3357246327682333
GKI1987W,2019-05-27-12-57-57,0,27,0.5201175504494331,left,stripes-2,stripes-4,left,left,0.7384341570607376,0.25586665530522623
GKI1987W,2019-05-27-12-57-57,0,28,0.6909888405320066,right,heavy poles sphere,stripes-8,left,right,2.2302000966553805,0.2799620966391103
GKI1987W,2019-05-27-12-57-57,0,29,0.5912436999454481,right,stripes-4,heavy poles sphere,right,left,0.6075329042098474,0.26381678259303953
GKI1987W,2019-05-27-12-57-57,0,30,0.5266616918214568,right,heavy poles sphere,stripes-2,right,left,0.9835455627132887,0.3999675327302157
GKI1987W,2019-05-27-12-57-57,0,31,0.5086601178315929,right,stripes-2,stripes-8,right,left,1.4017809106135246,0.30383766862610173
GKI1987W,2019-05-27-12-57-57,0,32,0.5216738828062425,right,stripes-8,stripes-2,right,left,2.182441799930757,0.4879199364586384
GKI1987W,2019-05-27-12-57-57,0,33,0.5900876707497241,right,stripes-2,stripes-8,right,left,1.8082412753542485,0.3198330858895133
GKI1987W,2019-05-27-12-57-57,0,34,0.6256435433169709,left,stripes-8,stripes-8,right,left,2.2544043842010524,0.3197976331236987
GKI1987W,2019-05-27-12-57-57,0,35,0.5034424598050097,right,heavy poles sphere,stripes-4,left,left,0.6258193787307391,0.3039182148227155
GKI1987W,2019-05-27-12-57-57,0,36,0.6669086753154612,left,stripes-8,heavy poles sphere,left,left,2.769558575744213,0.46382169622188485
GKI1987W,2019-05-27-12-57-57,0,37,0.5828933359309296,left,stripes-2,stripes-4,left,left,0.6291311024626793,0.27172088348288526
GKI1987W,2019-05-27-12-57-57,0,38,0.5086968976855637,right,heavy poles sphere,stripes-2,right,left,1.11635193525467,0.3038752983163704
GKI1987W,2019-05-27-12-57-57,0,39,0.6945152744072627,right,stripes-4,stripes-4,right,right,0.5172813575049986,0.3117072497175286
GKI1987W,2019-05-27-12-57-57,0,40,0.6259462056481352,right,stripes-4,stripes-8,left,right,0.16109892379085977,12.479089087825287
GKI1987W,2019-05-27-12-57-57,0,41,0.6856924402599045,right,stripes-2,stripes-2,left,right,0.9771158615053537,0.3759467287982261
GKI1987W,2019-05-27-12-57-57,0,42,0.6863083748477337,left,stripes-4,stripes-2,right,left,2.2691928524736795,0.43193784197137575
GKI1987W,2019-05-27-12-57-57,0,43,0.5767268300290553,left,stripes-4,heavy poles sphere,right,left,2.224353189162912,0.39181526247807597
GKI1987W,2019-05-27-12-57-57,0,44,0.5085631688461723,left,heavy poles sphere,stripes-8,right,left,1.4736315387806371,0.35992549943307495
GKI1987W,2019-05-27-12-57-57,0,45,0.5248259890542387,left,stripes-2,heavy poles sphere,left,right,1.5462033508463264,0.3518232984383758
GKI1987W,2019-05-27-12-57-57,0,46,0.6479661290979313,right,heavy poles sphere,heavy poles sphere,left,left,2.6998873597206057,0.4318526309373283
GKI1987W,2019-05-27-12-57-57,0,47,0.6800309579750915,left,stripes-8,stripes-4,left,right,0.6960332708661099,0.3759523266032829
GKI1987W,2019-05-27-12-57-57,1,0,0.5013654570767402,left,stripes-8,stripes-4,left,left,3.183856489691152,0.35184289075618835
GKI1987W,2019-05-27-12-57-57,1,1,0.5105648713992197,right,stripes-2,stripes-4,right,right,2.667037884079491,0.33582912513134033
GKI1987W,2019-05-27-12-57-57,1,2,0.6080969218064883,right,stripes-2,heavy poles sphere,right,right,1.0494939273144155,0.27166770433382226
GKI1987W,2019-05-27-12-57-57,1,3,0.5761183649598021,right,stripes-8,stripes-2,right,right,0.6043250508623714,1.2077917715996591
GKI1987W,2019-05-27-12-57-57,1,4,0.6814093606483579,right,stripes-2,stripes-8,right,left,1.5107067353415005,0.295831252297603
GKI1987W,2019-05-27-12-57-57,1,5,0.632226533804736,left,heavy poles sphere,stripes-2,right,right,2.0045398199870306,0.38382097472708665
GKI1987W,2019-05-27-12-57-57,1,6,0.630878305457576,right,stripes-4,stripes-2,left,right,1.7459209104767979,0.31194235753423527
GKI1987W,2019-05-27-12-57-57,1,7,0.6535737356201421,right,stripes-8,heavy poles sphere,right,left,3.620879937652944,0.31983153094392947
GKI1987W,2019-05-27-12-57-57,1,8,0.5607919925470264,left,heavy poles sphere,stripes-4,left,right,0.7663724916392312,0.36779352557846323
GKI1987W,2019-05-27-12-57-57,1,9,0.5574660330795315,right,stripes-8,stripes-8,right,left,0.7534866551434334,0.4318572957749893
GKI1987W,2019-05-27-12-57-57,1,10,0.6264354918602641,right,heavy poles sphere,stripes-8,left,right,0.6652434765353519,0.35177602808357733
GKI1987W,2019-05-27-12-57-57,1,11,0.6134227711866522,right,stripes-4,heavy poles sphere,right,left,0.7524305359027039,0.2798750196700439
GKI1987W,2019-05-27-12-57-57,1,12,0.6155003335322972,right,stripes-2,stripes-2,left,right,1.1896579927638413,0.343681912807142
GKI1987W,2019-05-27-12-57-57,1,13,0.6410259793756605,left,heavy poles sphere,heavy poles sphere,right,left,1.0876740684163906,0.36779694645952077
GKI1987W,2019-05-27-12-57-57,1,14,0.5911984798221889,right,stripes-4,stripes-8,left,right,0.4286298501094734,0.39173875914070777
GKI1987W,2019-05-27-12-57-57,1,15,0.6820758776516016,left,stripes-4,stripes-4,right,left,2.8063115875188487,0.3518562632909834
GKI1987W,2019-05-27-12-57-57,1,16,0.5406741197881884,left,stripes-4,stripes-8,right,right,0.7039448354960314,4.655565804376465
GKI1987W,2019-05-27-12-57-57,1,17,0.5461023906224527,right,heavy poles sphere,heavy poles sphere,right,left,0.649609428694248,0.3119535531445763
GKI1987W,2019-05-27-12-57-57,1,18,0.6338743351909265,right,heavy poles sphere,stripes-8,left,right,0.6662302451900359,0.5037017041584022
GKI1987W,2019-05-27-12-57-57,1,19,0.5416429892091019,right,heavy poles sphere,stripes-2,right,left,1.4618173709845905,0.49585047142841177
GKI1987W,2019-05-27-12-57-57,1,20,0.6457097757716543,left,stripes-4,stripes-4,right,left,1.3555088311595682,0.359859258738652
GKI1987W,2019-05-27-12-57-57,1,21,0.511659143174594,left,stripes-8,heavy poles sphere,left,left,3.890079631888284,0.37578656937284904
GKI1987W,2019-05-27-12-57-57,1,22,0.5506413824521045,right,stripes-2,stripes-8,right,right,0.6541501816486743,0.41580403452462633
GKI1987W,2019-05-27-12-57-57,1,23,0.5122546551693768,left,stripes-8,stripes-2,right,left,1.037966802527535,0.36787127287243493
GKI1987W,2019-05-27-12-57-57,1,24,0.6752281006200115,right,stripes-4,stripes-2,left,right,0.9054322345257333,0.45583487221142605
GKI1987W,2019-05-27-12-57-57,1,25,0.6883313734524092,left,stripes-8,stripes-8,right,left,0.42231770281000536,0.44783001082851115
GKI1987W,2019-05-27-12-57-57,1,26,0.5818553001548425,left,heavy poles sphere,stripes-4,left,right,0.011682619374823844,0.3278227088026142
GKI1987W,2019-05-27-12-57-57,1,27,0.6809598400158907,left,stripes-2,stripes-4,right,left,5.049632628486734,0.3918249031423784
GKI1987W,2019-05-27-12-57-57,1,28,0.6447347724691639,right,stripes-2,stripes-2,left,right,0.6500625399232831,0.40787101164164596
GKI1987W,2019-05-27-12-57-57,1,29,0.6540652211068151,left,stripes-4,heavy poles sphere,left,right,0.653866248531358,0.5279712994308738
GKI1987W,2019-05-27-12-57-57,1,30,0.6151295351550133,right,stripes-8,stripes-4,left,right,1.6129829895139665,0.2956857093633971
GKI1987W,2019-05-27-12-57-57,1,31,0.5347752196620634,right,stripes-2,heavy poles sphere,right,left,1.4588337408329153,0.41580869936251474
GKI1987W,2019-05-27-12-57-57,1,32,0.6969198277983609,right,stripes-2,stripes-8,right,right,1.4259133596594893,0.3917051723096847
GKI1987W,2019-05-27-12-57-57,1,33,0.5060986275891762,left,stripes-2,stripes-4,left,right,3.1068956873887146,0.4958591791253184
GKI1987W,2019-05-27-12-57-57,1,34,0.5298819419400916,right,stripes-4,stripes-4,right,right,3.282635981571957,0.4559701525026867
GKI1987W,2019-05-27-12-57-57,1,35,0.57324355809018,left,heavy poles sphere,stripes-4,left,right,0.8364380419375266,0.4238343970200731
GKI1987W,2019-05-27-12-57-57,1,36,0.6208560892312693,right,stripes-2,stripes-2,left,right,3.103926984717191,0.423792102491916
GKI1987W,2019-05-27-12-57-57,1,37,0.565168353482988,left,heavy poles sphere,heavy poles sphere,left,left,3.2990618078547413,0.36794839818821856
GKI1987W,2019-05-27-12-57-57,1,38,0.5147488942259775,right,stripes-8,stripes-2,right,right,0.32892516543074635,0.3758425474240994
GKI1987W,2019-05-27-12-57-57,1,39,0.5807328611212474,right,heavy poles sphere,stripes-8,right,left,3.245582554253815,0.3037857334338696
GKI1987W,2019-05-27-12-57-57,1,40,0.5595442212575007,right,stripes-8,heavy poles sphere,left,right,0.34367911390495465,0.3757094440570654
GKI1987W,2019-05-27-12-57-57,1,41,0.5480573616853859,left,stripes-4,stripes-8,left,right,1.5875947661766077,0.3997967996724583
GKI1987W,2019-05-27-12-57-57,1,42,0.5395966619836237,right,stripes-8,stripes-4,left,right,1.0767524395546388,0.8477953666345002
GKI1987W,2019-05-27-12-57-57,1,43,0.5330402602454126,right,stripes-4,stripes-2,right,left,2.232492708858672,0.34395309536853347
GKI1987W,2019-05-27-12-57-57,1,44,0.6269630164131033,left,stripes-8,stripes-8,right,right,1.629590433475414,0.44002884735596126
GKI1987W,2019-05-27-12-57-57,1,45,0.5715705050144932,right,stripes-2,heavy poles sphere,right,left,2.5460985474937843,0.35183604899452803
GKI1987W,2019-05-27-12-57-57,1,46,0.6541812998321993,right,heavy poles sphere,stripes-2,right,left,2.6982024203666697,0.471821581777931
GKI1987W,2019-05-27-12-57-57,1,47,0.6953332559167718,right,stripes-4,heavy poles sphere,left,right,0.6624439519760017,0.871698305668815
GKI1987W,2019-05-27-12-57-57,2,0,0.5543140503924383,left,stripes-2,heavy poles sphere,left,left,2.1856536961372512,0.3999889909830472
GKI1987W,2019-05-27-12-57-57,2,1,0.6695209485140431,right,stripes-2,stripes-2,right,right,1.3408534662542024,0.30395895440460663
GKI1987W,2019-05-27-12-57-57,2,2,0.6597771678826366,left,stripes-2,stripes-8,left,right,1.9267443227372496,0.27982370645622723
GKI1987W,2019-05-27-12-57-57,2,3,0.6745975333092327,left,stripes-4,stripes-8,right,right,1.1937126696368523,0.35972086855554153
GKI1987W,2019-05-27-12-57-57,2,4,0.5843030581762739,right,heavy poles sphere,stripes-4,right,right,1.4756567002930296,0.3278774428977158
GKI1987W,2019-05-27-12-57-57,2,5,0.6770602792358493,right,stripes-8,stripes-4,right,right,0.9269853393482208,0.5356881848369994
GKI1987W,2019-05-27-12-57-57,2,6,0.6341917562644916,right,heavy poles sphere,stripes-8,right,right,1.7389018847809439,0.3439717547191776
GKI1987W,2019-05-27-12-57-57,2,7,0.6466062323557278,right,heavy poles sphere,heavy poles sphere,right,right,0.7827874333006548,0.335682960218719
GKI1987W,2019-05-27-12-57-57,2,8,0.6752050618875535,left,heavy poles sphere,stripes-2,right,right,4.334797885024727,0.44783280973115325
GKI1987W,2019-05-27-12-57-57,2,9,0.6108933057630324,left,stripes-8,stripes-2,left,left,1.8589866231116048,0.5278288663885178
GKI1987W,2019-05-27-12-57-57,2,10,0.5683940461935851,left,stripes-8,heavy poles sphere,left,left,0.6679294900461628,0.39970785676837295
GKI1987W,2019-05-27-12-57-57,2,11,0.6552727422647006,left,stripes-4,heavy poles sphere,left,right,1.102240179428236,0.3277996956039715
GKI1987W,2019-05-27-12-57-57,2,12,0.6650727574472926,left,stripes-8,stripes-8,left,right,1.0170310112187053,0.3038109235569664
GKI1987W,2019-05-27-12-57-57,2,13,0.5811865519947941,left,stripes-4,stripes-2,left,right,0.4281412861143963,0.3198032309287555
GKI1987W,2019-05-27-12-57-57,2,14,0.6558240894619684,left,stripes-4,stripes-4,left,right,5.265680540722997,0.3358030020406204
GKI1987W,2019-05-27-12-57-57,2,15,0.5525837545179966,left,stripes-2,stripes-4,left,left,6.5030560906295705,0.35979488397924797
GKI1987W,2019-05-27-12-57-57,2,16,0.5207032954200408,right,heavy poles sphere,heavy poles sphere,left,right,1.2845622485265267,0.28781084145589375
GKI1987W,2019-05-27-12-57-57,2,17,0.5730468786310012,right,heavy poles sphere,stripes-4,left,right,0.5505929630612627,0.27191836160955063
GKI1987W,2019-05-27-12-57-57,2,18,0.6036580418976206,left,stripes-2,stripes-2,right,left,4.123636545706404,0.3038358026910828
GKI1987W,2019-05-27-12-57-57,2,19,0.6740336919516199,left,heavy poles sphere,stripes-8,left,left,0.32486209185003645,0.33583534491503997
GKI1987W,2019-05-27-12-57-57,2,20,0.6635488614797809,right,stripes-8,stripes-8,right,right,0.44702579282011357,0.33571748001736523
GKI1987W,2019-05-27-12-57-57,2,21,0.5422090711784912,left,stripes-4,stripes-4,right,left,1.9449577148016033,0.35183511602713224
GKI1987W,2019-05-27-12-57-57,2,22,0.5064358733985689,right,stripes-8,stripes-4,right,right,0.4792346307594926,0.33580082511639375
GKI1987W,2019-05-27-12-57-57,2,23,0.5482226115145865,left,stripes-2,stripes-4,right,right,1.7752204446771884,0.43185636280736617
GKI1987W,2019-05-27-12-57-57,2,24,0.6792038082245294,right,stripes-8,stripes-2,right,right,0.32139798342200265,0.3358916339557254
GKI1987W,2019-05-27-12-57-57,2,25,0.5140591148427909,right,stripes-2,heavy poles sphere,right,left,0.31502239433052637,0.3038071916869285
GKI1987W,2019-05-27-12-57-57,2,26,0.5561094729795149,left,stripes-4,heavy poles sphere,left,left,0.45256793092062253,0.319819713355173
GKI1987W,2019-05-27-12-57-57,2,27,0.5737834040037146,right,heavy poles sphere,stripes-2,right,right,0.2793811688588903,6.151653560546038
GKI1987W,2019-05-27-12-57-57,2,28,0.6963580839751415,left,stripes-8,heavy poles sphere,left,left,2.533805767356398,0.3838250175865596
GKI1987W,2019-05-27-12-57-57,2,29,0.6217468480339309,right,stripes-4,stripes-2,right,right,0.6134790172493467,0.27985138449275837
GKI1987W,2019-05-27-12-57-57,2,30,0.6388371787764381,right,stripes-4,stripes-8,right,left,0.3834437448570043,0.3118294684634293
GKI1987W,2019-05-27-12-57-57,2,31,0.5249841841846408,right,stripes-2,stripes-8,right,right,0.005649429365803371,0.31183226736629877
GKI1987W,2019-05-27-12-57-57,2,32,0.6161121917722301,right,stripes-4,stripes-8,right,right,0.38418078920335574,0.2878198601420081
GKI1987W,2019-05-27-12-57-57,2,33,0.5025117356768256,right,stripes-8,stripes-4,right,right,0.9843553785265158,0.29568291046052764
GKI1987W,2019-05-27-12-57-57,2,34,0.6328074911898626,left,heavy poles sphere,stripes-8,left,left,0.4360136661082379,0.32773345490932115
GKI1987W,2019-05-27-12-57-57,2,35,0.5479291908120065,right,stripes-4,stripes-4,left,right,1.2306339265555835,0.35980452464377777
GKI1987W,2019-05-27-12-57-57,2,36,0.5506823360614544,left,stripes-2,stripes-2,right,left,2.5194141212721206,0.28785064807038907
GKI1987W,2019-05-27-12-57-57,2,37,0.5907589108991878,left,stripes-4,heavy poles sphere,left,left,0.3184830818779574,0.2718225769433502
GKI1987W,2019-05-27-12-57-57,2,38,0.5165566843038387,left,heavy poles sphere,stripes-4,left,right,0.45091315751665206,0.35182485338395963
GKI1987W,2019-05-27-12-57-57,2,39,0.6435518712102072,left,stripes-8,stripes-2,right,left,1.8880308351988333,0.30397419287419325
GKI1987W,2019-05-27-12-57-57,2,40,0.5681146661777101,right,heavy poles sphere,heavy poles sphere,left,right,2.001068558807674,0.2877676139603409
GKI1987W,2019-05-27-12-57-57,2,41,0.671718144331953,right,stripes-8,heavy poles sphere,right,right,1.8823643014279696,0.2719566132782347
GKI1987W,2019-05-27-12-57-57,2,42,0.689338903981722,right,stripes-2,stripes-4,right,right,0.6946269778134138,0.2878183051961969
GKI1987W,2019-05-27-12-57-57,2,43,0.6942818977728777,right,stripes-2,stripes-8,right,left,0.06660144187003425,0.30370580921567125
GKI1987W,2019-05-27-12-57-57,2,44,0.662915694783813,right,stripes-8,stripes-8,right,right,2.4246740677942853,0.319813182582493
GKI1987W,2019-05-27-12-57-57,2,45,0.6761193338773761,right,stripes-2,heavy poles sphere,right,left,0.38260127518014997,0.327708264785997
GKI1987W,2019-05-27-12-57-57,2,46,0.5463580100930977,left,heavy poles sphere,stripes-2,left,left,2.588486683132487,0.25582840363654213
GKI1987W,2019-05-27-12-57-57,2,47,0.5791833730907315,right,stripes-4,stripes-2,left,right,2.7768139532136047,0.4079711501560723
GKI1987W,2019-05-27-12-57-57,3,0,0.6938145954703524,right,heavy poles sphere,stripes-8,left,right,1.3592217309283114,0.3039645522098908
GKI1987W,2019-05-27-12-57-57,3,1,0.5577367084865613,left,heavy poles sphere,stripes-4,right,right,0.9973516161796852,0.2478176334593627
GKI1987W,2019-05-27-12-57-57,3,2,0.6825822165601503,right,stripes-2,stripes-2,right,left,0.12701295518695588,0.31197905425710815
GKI1987W,2019-05-27-12-57-57,3,3,0.5473825269961744,left,stripes-8,heavy poles sphere,left,left,0.33603842084676216,0.22384876471983262
GKI1987W,2019-05-27-12-57-57,3,4,0.6160496040100292,left,stripes-4,heavy poles sphere,left,left,0.6649396401107879,0.2159667440614612
GKI1987W,2019-05-27-12-57-57,3,5,0.5266135716499359,left,stripes-2,stripes-8,left,left,0.9277270485322333,0.1918392708423653
GKI1987W,2019-05-27-12-57-57,3,6,0.6051252864515607,left,stripes-8,stripes-8,left,right,0.5373482450570464,0.2479376752812641
GKI1987W,2019-05-27-12-57-57,3,7,0.5373896738966537,left,stripes-8,stripes-4,left,right,2.051399357993887,0.25579854867578433
GKI1987W,2019-05-27-12-57-57,3,8,0.5559662364621394,right,stripes-8,stripes-2,left,left,1.4469576861906717,0.23994649742235197
GKI1987W,2019-05-27-12-57-57,3,9,0.6470079877210015,left,stripes-4,stripes-2,right,left,3.7673219415923995,0.35181054788199617
GKI1987W,2019-05-27-12-57-57,3,10,0.5945059804945619,left,heavy poles sphere,heavy poles sphere,left,left,1.426117368559062,0.21597203087731032
GKI1987W,2019-05-27-12-57-57,3,11,0.6685821601592884,right,stripes-4,stripes-4,right,left,0.540134397082511,0.25578206624913946
GKI1987W,2019-05-27-12-57-57,3,12,0.6150712246171212,left,stripes-2,heavy poles sphere,right,left,2.17207124388824,0.2478167004919669
GKI1987W,2019-05-27-12-57-57,3,13,0.5201846690735277,left,heavy poles sphere,stripes-2,right,left,2.085535395855004,0.30405909291948774
GKI1987W,2019-05-27-12-57-57,3,14,0.6121898720832187,left,stripes-4,stripes-8,left,left,3.1695652931102813,0.2557907739460461
GKI1987W,2019-05-27-12-57-57,3,15,0.6629496434160063,right,stripes-2,stripes-4,left,right,2.266609776380392,0.22381237898616746
GKI1987W,2019-05-27-12-57-57,3,16,0.6710234623269593,right,stripes-4,stripes-4,right,right,0.5693869719170834,0.30367813117891274
GKI1987W,2019-05-27-12-57-57,3,17,0.5358982613156147,right,stripes-2,stripes-2,right,right,0.5999687144890231,0.23991881938536608
GKI1987W,2019-05-27-12-57-57,3,18,0.5340205922162924,left,stripes-4,stripes-8,left,left,0.6080046747892993,0.6798164293090849
GKI1987W,2019-05-27-12-57-57,3,19,0.6532903568730656,left,stripes-2,stripes-8,right,right,1.2888700705880183,0.2558156530803899
GKI1987W,2019-05-27-12-57-57,3,20,0.5245081415541263,right,stripes-8,heavy poles sphere,right,left,0.7977351280310359,0.223818287780432
GKI1987W,2019-05-27-12-57-57,3,21,0.6108518917591291,left,stripes-2,heavy poles sphere,right,left,1.5568814751832178,0.25580539043767203
GKI1987W,2019-05-27-12-57-57,3,22,0.6554698980294505,right,stripes-2,stripes-4,right,right,0.9847406941153167,0.279933485634956
GKI1987W,2019-05-27-12-57-57,3,23,0.5330365282820589,right,stripes-8,stripes-4,right,left,0.6719154383113164,0.3198523672185729
GKI1987W,2019-05-27-12-57-57,3,24,0.6845091608391645,right,heavy poles sphere,stripes-2,right,right,1.9488609399459165,0.2717961428634226
GKI1987W,2019-05-27-12-57-57,3,25,0.6882528896646214,right,heavy poles sphere,stripes-8,right,left,1.4550328311274825,0.3278189769330311
GKI1987W,2019-05-27-12-57-57,3,26,0.5332830320053608,left,stripes-4,stripes-2,left,left,0.6728729739834307,0.23181506344508307
GKI1987W,2019-05-27-12-57-57,3,27,0.5329685028771004,right,stripes-4,heavy poles sphere,right,right,0.30370736416170985,0.22384347790375614
GKI1987W,2019-05-27-12-57-57,3,28,0.5553447153298231,left,stripes-8,stripes-8,right,left,1.739893940251477,0.2558483069437898
GKI1987W,2019-05-27-12-57-57,3,29,0.5799712536500327,left,stripes-8,stripes-2,left,right,1.962926980363136,0.30392567856324604
GKI1987W,2019-05-27-12-57-57,3,30,0.6042344388692757,right,heavy poles sphere,heavy poles sphere,right,left,1.5526168806168243,0.30370736416170985
GKI1987W,2019-05-27-12-57-57,3,31,0.5065295022855352,left,heavy poles sphere,stripes-4,left,right,0.6578176769980928,0.32779067691762975
GKI1987W,2019-05-27-12-57-57,3,32,0.6847127821570608,right,stripes-2,stripes-8,left,right,0.557766861366872,0.2558284036367695
GKI1987W,2019-05-27-12-57-57,3,33,0.6521115240737229,right,stripes-8,stripes-8,right,right,0.3616057739491225,0.26379750126397994
GKI1987W,2019-05-27-12-57-57,3,34,0.6879571152605257,left,heavy poles sphere,stripes-2,right,left,2.6535742296955505,0.1998456871710914
GKI1987W,2019-05-27-12-57-57,3,35,0.5141072544213572,right,stripes-2,stripes-4,right,right,0.40480528034731833,0.23983391934052634
GKI1987W,2019-05-27-12-57-57,3,36,0.697415265853768,left,stripes-4,stripes-8,right,left,1.1342636678186864,0.2316956436015971
GKI1987W,2019-05-27-12-57-57,3,37,0.5098232046307669,left,heavy poles sphere,heavy poles sphere,left,left,2.1885782383460537,0.2558147201129941
GKI1987W,2019-05-27-12-57-57,3,38,0.5032978036365321,right,heavy poles sphere,stripes-4,right,right,1.2539232839462784,0.2398388951673951
GKI1987W,2019-05-27-12-57-57,3,39,0.6942595857680455,left,stripes-4,stripes-2,left,right,1.7486520174174984,0.2237669745668427
GKI1987W,2019-05-27-12-57-57,3,40,0.610293966849284,left,stripes-8,heavy poles sphere,left,left,1.1410696659290807,0.2557938838381233
GKI1987W,2019-05-27-12-57-57,3,41,0.6324861498527238,right,stripes-2,stripes-2,right,right,0.5379042937029226,0.24796255441515314
GKI1987W,2019-05-27-12-57-57,3,42,0.5971955092609151,right,stripes-8,stripes-4,left,right,3.4259233113129994,0.29571369838913597
GKI1987W,2019-05-27-12-57-57,3,43,0.687176653134161,right,stripes-2,heavy poles sphere,right,left,0.9268077645292578,0.24782385324260758
GKI1987W,2019-05-27-12-57-57,3,44,0.5887107052461922,right,stripes-8,stripes-2,right,left,0.8952006906447423,0.29582130064409284
GKI1987W,2019-05-27-12-57-57,3,45,0.6586142995659388,right,heavy poles sphere,stripes-8,right,right,0.6209181893214009,0.4399526550078008
GKI1987W,2019-05-27-12-57-57,3,46,0.508317690154306,right,stripes-4,stripes-4,right,right,0.2768245268453029,0.24797623793892853
GKI1987W,2019-05-27-12-57-57,3,47,0.5678263374826447,right,stripes-4,heavy poles sphere,right,right,1.3457599424796172,0.24792990055175324
GKI1987W,2019-05-27-12-57-57,4,0,0.6752707260061962,left,stripes-8,stripes-8,left,right,0.9121586194069096,0.1679668087472237
GKI1987W,2019-05-27-12-57-57,4,1,0.6553714381174065,left,stripes-2,heavy poles sphere,right,right,0.7466134833707656,0.295789579747634
GKI1987W,2019-05-27-12-57-57,4,2,0.5400544318087279,right,stripes-2,stripes-2,left,right,3.665735150422279,0.23967158299046787
GKI1987W,2019-05-27-12-57-57,4,3,0.5078032096369569,right,stripes-8,stripes-4,right,right,0.8061159753274296,0.3436983952333321
GKI1987W,2019-05-27-12-57-57,4,4,0.6196760613773508,left,stripes-2,stripes-4,right,left,0.389837682309917,0.27168263181420116
GKI1987W,2019-05-27-12-57-57,4,5,0.650232116645953,right,stripes-4,stripes-2,right,left,0.3844908454116194,0.2718434132184484
GKI1987W,2019-05-27-12-57-57,4,6,0.5597935394687434,right,stripes-8,heavy poles sphere,left,right,0.9839999178984726,0.2718505659690891
GKI1987W,2019-05-27-12-57-57,4,7,0.5393723049962872,right,heavy poles sphere,heavy poles sphere,right,right,2.4970938061528614,0.28783354366532876
GKI1987W,2019-05-27-12-57-57,4,8,0.6819460671590484,right,heavy poles sphere,stripes-8,right,right,0.8527534670629393,0.2878490931248052
GKI1987W,2019-05-27-12-57-57,4,9,0.5544855936104831,left,stripes-8,stripes-2,left,left,0.8159973453966813,0.2558616794781301
GKI1987W,2019-05-27-12-57-57,4,10,0.5447226807571437,left,heavy poles sphere,stripes-4,right,right,0.8711777097887534,0.22386991198391115
GKI1987W,2019-05-27-12-57-57,4,11,0.6397713820886979,left,heavy poles sphere,stripes-2,left,left,1.0648039244347274,0.2638298441383995
GKI1987W,2019-05-27-12-57-57,4,12,0.6702145588852811,right,stripes-4,heavy poles sphere,right,right,0.6731936038236199,0.22391189552217838
GKI1987W,2019-05-27-12-57-57,4,13,0.5682401542743489,right,stripes-2,stripes-8,right,left,1.5256678026066766,0.19993991689125323
GKI1987W,2019-05-27-12-57-57,4,14,0.5691681843476113,left,stripes-4,stripes-4,right,left,1.1283035602664313,0.223880174626629
GKI1987W,2019-05-27-12-57-57,4,15,0.6308697010634404,left,stripes-4,stripes-8,right,right,0.5438970551190323,0.26381647160360444
GKI1987W,2019-05-27-12-57-57,4,16,0.6857994087104877,right,stripes-4,heavy poles sphere,right,right,0.7564957864078679,0.26382486831153074
GKI1987W,2019-05-27-12-57-57,4,17,0.5436612160954888,left,heavy poles sphere,stripes-8,right,left,1.8703769126609586,0.20780234523135732
GKI1987W,2019-05-27-12-57-57,4,18,0.6298466577289742,right,stripes-8,heavy poles sphere,right,right,0.3694669583328505,0.26383388699787247
GKI1987W,2019-05-27-12-57-57,4,19,0.6591893503871492,left,stripes-2,stripes-8,right,right,0.6608936709349109,0.24781981038358936
GKI1987W,2019-05-27-12-57-57,4,20,0.5042915515748478,right,stripes-8,stripes-2,right,right,0.6515885638086729,0.255853904749074
GKI1987W,2019-05-27-12-57-57,4,21,0.662513427713239,right,stripes-2,stripes-4,right,right,1.4514222467973923,0.24778995542283155
GKI1987W,2019-05-27-12-57-57,4,22,0.6170561825075936,left,stripes-4,stripes-2,left,right,0.7974085893965821,0.2797975833655073
GKI1987W,2019-05-27-12-57-57,4,23,0.5810944311152015,right,heavy poles sphere,stripes-4,right,right,0.5152471773067191,0.26387307163395235
GKI1987W,2019-05-27-12-57-57,4,24,0.6290861594630875,left,heavy poles sphere,heavy poles sphere,left,left,0.9087623066193373,0.25582778165835407
GKI1987W,2019-05-27-12-57-57,4,25,0.6251211734296769,left,stripes-4,stripes-8,left,left,0.3464951208907223,0.22384130097952948
GKI1987W,2019-05-27-12-57-57,4,26,0.5581523422151884,right,stripes-8,stripes-4,left,right,1.3245333762915834,0.2479566456208886
GKI1987W,2019-05-27-12-57-57,4,27,0.5962397805670188,left,stripes-8,stripes-8,right,left,1.844022756944014,0.21569431754323887
GKI1987W,2019-05-27-12-57-57,4,28,0.511310484483444,right,stripes-2,heavy poles sphere,right,right,0.372483242348153,2.9276048297861053
GKI1987W,2019-05-27-12-57-57,4,29,0.6285463875345106,left,heavy poles sphere,stripes-2,left,left,1.2216609558690834,0.26396730135411417
GKI1987W,2019-05-27-12-57-57,4,30,0.6782495245801057,right,stripes-2,stripes-2,left,right,0.5411398250871571,0.27967505362994416
GKI1987W,2019-05-27-12-57-57,4,31,0.6026900450918196,left,stripes-4,stripes-4,right,left,0.2750792555912085,0.3198215792904193
GKI1987W,2019-05-27-12-57-57,4,32,0.6200425210161017,left,stripes-8,stripes-4,left,right,0.7938934787434846,0.26382953314941915
GKI1987W,2019-05-27-12-57-57,4,33,0.619584966349908,right,stripes-8,heavy poles sphere,right,right,0.7663805773572676,0.23194225801762514
GKI1987W,2019-05-27-12-57-57,4,34,0.514317472815164,left,stripes-2,stripes-4,left,right,0.721111437995205,0.24769199383263185
GKI1987W,2019-05-27-12-57-57,4,35,0.6259680334073309,left,stripes-2,stripes-8,right,right,1.5442036904464658,0.2637147781438216
GKI1987W,2019-05-27-12-57-57,4,36,0.599644824991474,left,stripes-2,stripes-2,right,left,1.5259921643169037,0.3998369172763887
GKI1987W,2019-05-27-12-57-57,4,37,0.5296406613195126,left,stripes-4,stripes-8,left,left,0.633850985182562,0.22385529549228522
GKI1987W,2019-05-27-12-57-57,4,38,0.6819505179417064,right,stripes-4,stripes-4,left,right,1.6270536947690744,0.23183123488206547
GKI1987W,2019-05-27-12-57-57,4,39,0.5818208299774273,left,heavy poles sphere,stripes-2,left,left,0.37697672494823564,0.28783665355740595
GKI1987W,2019-05-27-12-57-57,4,40,0.6981603798036812,left,stripes-4,heavy poles sphere,right,right,0.6912085847939125,0.2797098844175707
GKI1987W,2019-05-27-12-57-57,4,41,0.5545112869950505,right,heavy poles sphere,stripes-4,right,right,0.31038150286167365,0.23183434477368792
GKI1987W,2019-05-27-12-57-57,4,42,0.6237745654985936,right,stripes-4,stripes-2,right,left,0.7112387756233147,0.22383134932579196
GKI1987W,2019-05-27-12-57-57,4,43,0.5373502294405401,right,heavy poles sphere,heavy poles sphere,right,right,0.33401419230176543,0.27182630881361547
GKI1987W,2019-05-27-12-57-57,4,44,0.6741337862691825,right,stripes-8,stripes-2,right,left,0.2741170550816605,0.27178930110176225
GKI1987W,2019-05-27-12-57-57,4,45,0.6367059254936646,left,heavy poles sphere,stripes-8,left,left,0.8671034405974751,0.24768981690795044
GKI1987W,2019-05-27-12-57-57,4,46,0.6855073790065892,left,stripes-2,heavy poles sphere,left,left,0.8586865185570787,0.43983230219691904
GKI1987W,2019-05-27-12-57-57,4,47,0.6526107629032523,right,stripes-8,stripes-8,left,left,0.7476245091811506,0.31982842105207965
GKI1987W,2019-05-27-12-57-57,5,0,0.639918695907542,left,stripes-4,stripes-2,left,right,0.36097073405244373,0.24768639602734766
GKI1987W,2019-05-27-12-57-57,5,1,0.5617303860897891,left,stripes-8,stripes-4,left,right,0.42491788330835334,0.23164837324702603
GKI1987W,2019-05-27-12-57-57,5,2,0.5267923874080174,left,heavy poles sphere,heavy poles sphere,left,left,1.963318826725299,0.19968677170209048
GKI1987W,2019-05-27-12-57-57,5,3,0.5212255265340273,left,stripes-4,stripes-8,left,left,0.37424437405024946,0.22381237898616746
GKI1987W,2019-05-27-12-57-57,5,4,0.6222182270372485,right,stripes-2,stripes-4,right,left,0.8764931367800273,0.19970822995537674
GKI1987W,2019-05-27-12-57-57,5,5,0.5539255743793395,right,stripes-8,stripes-2,right,right,0.5143876032248045,0.19968272884307225
GKI1987W,2019-05-27-12-57-57,5,6,0.5477085025427344,left,heavy poles sphere,stripes-4,left,left,0.47241557110373833,0.18383503143786584
GKI1987W,2019-05-27-12-57-57,5,7,0.589767964891804,left,stripes-4,stripes-4,left,right,0.37394706839813807,0.2319388371365676
GKI1987W,2019-05-27-12-57-57,5,8,0.5589473367893368,left,stripes-8,stripes-8,left,left,0.3668524723329938,0.19181967852455273
GKI1987W,2019-05-27-12-57-57,5,9,0.6503988808463039,right,stripes-8,heavy poles sphere,right,right,0.4151888979354226,0.1676968701426631
GKI1987W,2019-05-27-12-57-57,5,10,0.6689292136863241,left,heavy poles sphere,stripes-2,right,left,1.7091399096761961,0.2318318568604809
GKI1987W,2019-05-27-12-57-57,5,11,0.571331162455753,left,stripes-2,stripes-2,right,right,2.91895995267987,0.23167605128310242
GKI1987W,2019-05-27-12-57-57,5,12,0.6340995923632247,right,stripes-4,heavy poles sphere,right,left,0.8136975804422946,0.21591200996635962
GKI1987W,2019-05-27-12-57-57,5,13,0.5692192641179875,right,heavy poles sphere,stripes-8,right,right,0.30229702824954074,0.535807293691505
GKI1987W,2019-05-27-12-57-57,5,14,0.5757103881798682,left,stripes-2,stripes-8,left,left,0.5489543610947294,0.2718384373911249
GKI1987W,2019-05-27-12-57-57,5,15,0.6210652637591096,left,stripes-2,heavy poles sphere,left,left,2.2036808056859627,0.23969926102745376
GKI1987W,2019-05-27-12-57-57,5,16,0.5705376305730377,right,heavy poles sphere,heavy poles sphere,left,right,0.8104803974192691,0.1996833508214877
GKI1987W,2019-05-27-12-57-57,5,17,0.68072258066767,left,stripes-2,stripes-8,right,right,0.34963424563056833,0.29571960718294577
GKI1987W,2019-05-27-12-57-57,5,18,0.625364509946628,left,heavy poles sphere,stripes-8,left,left,2.898957439887454,0.2717218164507358
GKI1987W,2019-05-27-12-57-57,5,19,0.5284446329582393,left,stripes-4,stripes-8,right,right,1.235712690784112,0.24784562248532893
GKI1987W,2019-05-27-12-57-57,5,20,0.5979455895117842,left,stripes-2,stripes-4,right,right,0.5512183622936391,0.33594574607241157
GKI1987W,2019-05-27-12-57-57,5,21,0.5023071063412066,right,stripes-8,stripes-2,right,right,0.47861016449496674,0.29581601382824374
GKI1987W,2019-05-27-12-57-57,5,22,0.6083051930389101,left,stripes-4,heavy poles sphere,left,left,0.2546360711367015,0.19998345537624118
GKI1987W,2019-05-27-12-57-57,5,23,0.6686028654228687,right,stripes-4,stripes-4,right,left,1.0090354795111125,0.5517059933213204
GKI1987W,2019-05-27-12-57-57,5,24,0.5992731640823298,right,stripes-2,heavy poles sphere,right,right,0.5944517665120657,0.2077102924358769
GKI1987W,2019-05-27-12-57-57,5,25,0.5664999382226311,left,stripes-8,stripes-8,left,left,1.7151161886658883,0.24768670701678275
GKI1987W,2019-05-27-12-57-57,5,26,0.5483393000559181,left,heavy poles sphere,stripes-4,right,right,1.2461600611532049,0.2878263909146881
GKI1987W,2019-05-27-12-57-57,5,27,0.5277789552018932,left,stripes-4,stripes-2,right,right,1.3942870044465963,0.27981344381350937
GKI1987W,2019-05-27-12-57-57,5,28,0.6361081780422027,right,heavy poles sphere,stripes-2,right,right,0.32497062707216173,0.2158044077118575
GKI1987W,2019-05-27-12-57-57,5,29,0.5233503344691581,right,stripes-8,heavy poles sphere,right,right,0.4033075564771025,0.2399415215954832
GKI1987W,2019-05-27-12-57-57,5,30,0.5853135020242114,left,stripes-2,stripes-2,left,left,1.4887160687485448,0.2718477670669017
GKI1987W,2019-05-27-12-57-57,5,31,0.6620862750296229,left,stripes-8,stripes-4,left,right,0.4059951249337246,0.23978944788859735
GKI1987W,2019-05-27-12-57-57,5,32,0.5661168117538187,right,stripes-2,heavy poles sphere,left,right,2.197522909017607,0.3597012762375016
GKI1987W,2019-05-27-12-57-57,5,33,0.5185152582250236,left,stripes-8,stripes-2,left,left,1.0801045918797172,0.22381890975884744
GKI1987W,2019-05-27-12-57-57,5,34,0.6604335725762032,left,stripes-4,heavy poles sphere,left,left,0.22569572943439198,0.2558284036367695
GKI1987W,2019-05-27-12-57-57,5,35,0.5980586667224272,right,stripes-4,stripes-2,right,right,0.24606614242156866,0.2878074205750636
GKI1987W,2019-05-27-12-57-57,5,36,0.6817712660441421,right,stripes-4,stripes-4,right,right,0.3888288334237586,0.2479585115561349
GKI1987W,2019-05-27-12-57-57,5,37,0.5336499650301723,right,heavy poles sphere,heavy poles sphere,right,right,0.3759949321206477,0.24768017624364802
GKI1987W,2019-05-27-12-57-57,5,38,0.6160320947217006,left,heavy poles sphere,stripes-2,left,right,1.4946335707836624,0.3277965857118943
GKI1987W,2019-05-27-12-57-57,5,39,0.6011759231056097,right,stripes-8,stripes-4,right,right,0.36389341032599987,0.25580539043767203
GKI1987W,2019-05-27-12-57-57,5,40,0.5367315723166081,right,heavy poles sphere,stripes-4,right,right,0.19811472141918784,1.8158315881655653
GKI1987W,2019-05-27-12-57-57,5,41,0.6804690233113188,right,stripes-2,stripes-4,right,left,1.9597657753924977,0.2316934666769157
GKI1987W,2019-05-27-12-57-57,5,42,0.5911188531675132,left,stripes-8,heavy poles sphere,left,left,3.159784372544891,2.815712168322534
GKI1987W,2019-05-27-12-57-57,5,43,0.6246910318789346,left,stripes-8,stripes-8,left,left,3.538801497475106,0.22380802513771414
GKI1987W,2019-05-27-12-57-57,5,44,0.696224505771601,left,stripes-2,stripes-8,left,left,0.3652679824826919,0.27170191314326075
GKI1987W,2019-05-27-12-57-57,5,45,0.667620391978097,right,stripes-2,stripes-2,right,left,2.111923449392634,0.2076966089121015
GKI1987W,2019-05-27-12-57-57,5,46,0.6374457129515854,left,stripes-4,stripes-8,left,left,0.4154271156435243,0.2238649361570424
GKI1987W,2019-05-27-12-57-57,5,47,0.6615948514950315,right,heavy poles sphere,stripes-8,left,left,1.6353387573990403,0.23998910293948938
GKI1987W,2019-05-27-12-57-57,6,0,0.6703261822023615,right,heavy poles sphere,stripes-4,right,right,0.2893508598540393,0.22383352625047337
GKI1987W,2019-05-27-12-57-57,6,1,0.6933014956286278,left,stripes-8,stripes-4,left,right,1.2580426465674464,0.2796657239546221
GKI1987W,2019-05-27-12-57-57,6,2,0.5967916001287805,right,stripes-4,stripes-4,left,left,2.571367350988112,0.24772029384757843
GKI1987W,2019-05-27-12-57-57,6,3,0.6824271234632195,right,stripes-2,heavy poles sphere,left,right,1.3016703850607882,0.23180169091028802
GKI1987W,2019-05-27-12-57-57,6,4,0.6211501358315397,right,stripes-4,stripes-2,right,right,0.4057198995133149,0.22385591747070066
GKI1987W,2019-05-27-12-57-57,6,5,0.5887360861511148,right,heavy poles sphere,stripes-2,right,right,0.29331255096349196,0.22380647019190292
GKI1987W,2019-05-27-12-57-57,6,6,0.5366421091553552,right,heavy poles sphere,heavy poles sphere,right,right,0.5091066960326316,0.2316956436015971
GKI1987W,2019-05-27-12-57-57,6,7,0.6969347092736644,right,stripes-8,stripes-2,right,right,0.4182894600171494,0.24783535984261107
GKI1987W,2019-05-27-12-57-57,6,8,0.5887592548257359,right,stripes-2,stripes-2,right,right,0.5431310887793188,0.46396630618846757
GKI1987W,2019-05-27-12-57-57,6,9,0.5111390989064933,left,stripes-2,stripes-4,right,right,0.47306025166471954,0.21587438027609096
GKI1987W,2019-05-27-12-57-57,6,10,0.6901221551913574,left,stripes-2,stripes-8,right,right,0.39314132032313864,0.20794042442548744
GKI1987W,2019-05-27-12-57-57,6,11,0.5060082693279098,left,stripes-4,stripes-8,left,left,0.31606793993933024,0.2159462187760255
GKI1987W,2019-05-27-12-57-57,6,12,0.6757464481718154,left,stripes-4,heavy poles sphere,left,left,0.2603010499615266,0.2558072563724636
GKI1987W,2019-05-27-12-57-57,6,13,0.5357706352131116,right,heavy poles sphere,stripes-8,right,right,0.29061782975577444,0.23985662155064347
GKI1987W,2019-05-27-12-57-57,6,14,0.5813619351834408,right,stripes-8,stripes-8,right,right,0.3417055765958139,0.20770687155481937
GKI1987W,2019-05-27-12-57-57,6,15,0.6025808048513348,right,stripes-8,heavy poles sphere,right,right,0.3519993183117549,0.2558346234200144
GKI1987W,2019-05-27-12-57-57,6,16,0.5903545248671643,left,stripes-4,stripes-8,left,left,0.4626436692246898,0.23982863252467723
GKI1987W,2019-05-27-12-57-57,6,17,0.5838597837769914,left,stripes-2,stripes-4,right,left,4.177878966744629,0.2798237064557725
GKI1987W,2019-05-27-12-57-57,6,18,0.6852502472877373,left,stripes-2,stripes-8,left,left,0.4004906165232569,0.26369114296585394
GKI1987W,2019-05-27-12-57-57,6,19,0.594462755371491,right,stripes-8,heavy poles sphere,right,right,0.36655174579982486,0.2798177976619627
GKI1987W,2019-05-27-12-57-57,6,20,0.5150076244171261,left,heavy poles sphere,stripes-4,left,left,0.32882875878658524,0.24795509067507737
GKI1987W,2019-05-27-12-57-57,6,21,0.5696487191702182,left,stripes-8,stripes-2,left,left,0.8984066780571993,0.29581787976258056
GKI1987W,2019-05-27-12-57-57,6,22,0.6654610462389192,right,stripes-8,stripes-8,right,right,0.4228274140687063,0.26371291220812054
GKI1987W,2019-05-27-12-57-57,6,23,0.5155792469971058,left,stripes-2,stripes-2,right,left,1.5734764795774936,0.23183247883889635
GKI1987W,2019-05-27-12-57-57,6,24,0.6388383949137654,right,stripes-4,stripes-2,right,right,0.6894067135099249,0.23974373247938274
GKI1987W,2019-05-27-12-57-57,6,25,0.5090013391384987,left,stripes-4,heavy poles sphere,left,left,1.4160406972878263,0.2799403273970711
GKI1987W,2019-05-27-12-57-57,6,26,0.5540372794597325,left,stripes-2,heavy poles sphere,left,left,1.0453549723747528,0.24783629281000685
GKI1987W,2019-05-27-12-57-57,6,27,0.559101371828258,left,heavy poles sphere,stripes-2,left,right,0.7703848739838577,0.23181319750983675
GKI1987W,2019-05-27-12-57-57,6,28,0.540992266025639,left,heavy poles sphere,stripes-8,left,left,1.1809636683783538,0.32795425722406435
GKI1987W,2019-05-27-12-57-57,6,29,0.5470687837010392,right,stripes-8,stripes-4,right,right,0.3932744236904,0.2558430201279407
GKI1987W,2019-05-27-12-57-57,6,30,0.6385604285688897,left,heavy poles sphere,heavy poles sphere,right,right,0.49547510749334833,0.1918109708276461
GKI1987W,2019-05-27-12-57-57,6,31,0.5344021848860154,left,stripes-4,stripes-4,right,left,0.7093087767989346,0.23181133157459044
GKI1987W,2019-05-27-12-57-57,6,32,0.6672314984371903,left,stripes-2,stripes-4,left,left,0.6593402800021977,0.22386680209183396
GKI1987W,2019-05-27-12-57-57,6,33,0.5871153776174353,right,stripes-8,stripes-4,right,right,0.32732574810006554,0.24785899501966924
GKI1987W,2019-05-27-12-57-57,6,34,0.6128174846838502,left,stripes-8,heavy poles sphere,left,left,0.30422764905233635,0.25587505201292515
GKI1987W,2019-05-27-12-57-57,6,35,0.6633719318654239,right,heavy poles sphere,stripes-4,right,right,0.47121173200457633,0.22381393393243343
GKI1987W,2019-05-27-12-57-57,6,36,0.600439775962578,left,stripes-8,stripes-2,left,left,0.44261627729792963,0.2557842431733661
GKI1987W,2019-05-27-12-57-57,6,37,0.6544959758661442,right,stripes-4,stripes-4,left,right,0.371312368101826,0.2319578074761921
GKI1987W,2019-05-27-12-57-57,6,38,0.6876807558922979,left,heavy poles sphere,heavy poles sphere,right,right,0.6095642855057122,0.19969454643160134
GKI1987W,2019-05-27-12-57-57,6,39,0.5013992381794291,left,stripes-2,heavy poles sphere,left,left,1.677508578636207,0.24782945104834653
GKI1987W,2019-05-27-12-57-57,6,40,0.6997998459726124,right,stripes-4,heavy poles sphere,right,right,0.3479682766164842,0.2398168149356934
GKI1987W,2019-05-27-12-57-57,6,41,0.5682249510450805,right,stripes-2,stripes-2,left,right,0.4208697372082497,0.2717777945022135
GKI1987W,2019-05-27-12-57-57,6,42,0.6735033129634834,right,heavy poles sphere,stripes-8,right,right,0.27760013384977356,0.26381398369039744
GKI1987W,2019-05-27-12-57-57,6,43,0.5270062275530453,left,heavy poles sphere,stripes-2,left,right,0.7793338985043192,0.3356745635110201
GKI1987W,2019-05-27-12-57-57,6,44,0.5586333509140069,right,stripes-4,stripes-2,right,right,0.3671858527295626,0.24766929162296947
GKI1987W,2019-05-27-12-57-57,6,45,0.6627162355711869,right,stripes-2,stripes-8,right,right,0.20250806550393463,3.911740649954936
GKI1987W,2019-05-27-12-57-57,6,46,0.6541561404619102,left,stripes-8,stripes-8,left,left,0.5437166813971999,0.2318184843261406
GKI1987W,2019-05-27-12-57-57,6,47,0.639689343424946,right,stripes-4,stripes-8,right,right,0.3424034363060855,0.343829943655237
GKI1987W,2019-05-27-12-57-57,7,0,0.5785538868550414,right,stripes-2,stripes-8,right,left,0.35220457116793114,0.3517974863366362
GKI1987W,2019-05-27-12-57-57,7,1,0.6183052362057833,left,stripes-8,stripes-4,left,right,0.6664429617862879,0.27969713386164585
GKI1987W,2019-05-27-12-57-57,7,2,0.6449592643026015,left,stripes-4,heavy poles sphere,right,right,0.9388390027693276,0.2238322822936425
GKI1987W,2019-05-27-12-57-57,7,3,0.502060294358042,right,heavy poles sphere,stripes-2,right,right,0.39206902964497203,0.2638136727014171
GKI1987W,2019-05-27-12-57-57,7,4,0.6657023043116085,left,stripes-4,stripes-4,left,right,0.7781191747835692,0.32782426374842544
GKI1987W,2019-05-27-12-57-57,7,5,0.6258537578312579,right,heavy poles sphere,stripes-4,right,right,0.3572245584423399,0.24783442687476054
GKI1987W,2019-05-27-12-57-57,7,6,0.5147406534905886,left,heavy poles sphere,stripes-8,right,right,0.4008672244153786,0.26397010025675627
GKI1987W,2019-05-27-12-57-57,7,7,0.5151487801780844,left,stripes-8,heavy poles sphere,left,left,0.10645532671605906,0.24782509719943846
GKI1987W,2019-05-27-12-57-57,7,8,0.6427751686664858,right,stripes-2,stripes-2,right,right,0.4741686170873436,0.3037711169426984
GKI1987W,2019-05-27-12-57-57,7,9,0.5339804672795556,left,stripes-4,stripes-8,right,right,0.260930803042811,0.2878388304816326
GKI1987W,2019-05-27-12-57-57,7,10,0.5450755190010655,right,stripes-8,stripes-8,right,right,0.34455890228309727,0.3118527926517345
GKI1987W,2019-05-27-12-57-57,7,11,0.5024774726366602,right,stripes-2,stripes-4,right,left,0.8014374541680809,0.2478341158857802
GKI1987W,2019-05-27-12-57-57,7,12,0.6199862383457833,right,stripes-8,stripes-2,right,right,0.8692309175485207,0.29594600730297316
GKI1987W,2019-05-27-12-57-57,7,13,0.5067071953953277,left,heavy poles sphere,heavy poles sphere,left,left,0.1799187447481927,2.2876086984915673
GKI1987W,2019-05-27-12-57-57,7,14,0.5562596779593436,left,stripes-4,stripes-2,left,left,2.4556799996021255,0.30381061256775865
GKI1987W,2019-05-27-12-57-57,7,15,0.5347140114922521,right,stripes-2,heavy poles sphere,left,left,0.3390279597929293,0.2637098023164981
GKI1987W,2019-05-27-12-57-57,7,16,0.5823730060220533,right,stripes-8,stripes-4,right,right,0.37913623378426564,0.3518413358106045
GKI1987W,2019-05-27-12-57-57,7,17,0.681314496892172,left,stripes-2,stripes-2,right,left,0.5691300948578828,0.2638587661317615
GKI1987W,2019-05-27-12-57-57,7,18,0.6814363642786984,left,stripes-2,stripes-4,left,right,0.9956840922195624,0.23188876787935442
GKI1987W,2019-05-27-12-57-57,7,19,0.6539942562407481,left,stripes-4,stripes-4,left,right,0.33471578388252965,0.23990544685102577
GKI1987W,2019-05-27-12-57-57,7,20,0.5349672660240568,right,heavy poles sphere,stripes-2,right,right,0.25900578004484487,0.27185180992591995
GKI1987W,2019-05-27-12-57-57,7,21,0.6305354250301308,left,stripes-8,stripes-2,left,right,0.5878643937917332,0.3198464584238536
GKI1987W,2019-05-27-12-57-57,7,22,0.6777318210403959,left,stripes-2,heavy poles sphere,right,left,1.8923682012323297,0.23979473470444645
GKI1987W,2019-05-27-12-57-57,7,23,0.6301364186976536,left,stripes-4,stripes-2,left,left,0.2440509325633684,0.25581751901518146
GKI1987W,2019-05-27-12-57-57,7,24,0.5742468748937846,right,heavy poles sphere,heavy poles sphere,right,right,0.395065410353709,0.2238105130513759
GKI1987W,2019-05-27-12-57-57,7,25,0.583370183179634,left,stripes-4,heavy poles sphere,left,left,0.2194065953340214,0.2957077895944167
GKI1987W,2019-05-27-12-57-57,7,26,0.6844995020347997,left,stripes-4,stripes-8,left,left,0.8021430886074086,0.49596771434789844
GKI1987W,2019-05-27-12-57-57,7,27,0.515988828619987,right,stripes-2,stripes-8,left,left,0.4966235905189933,0.2956838434279234
GKI1987W,2019-05-27-12-57-57,7,28,0.590691716235945,right,stripes-8,heavy poles sphere,right,right,0.32119584045767624,0.3198461474348733
GKI1987W,2019-05-27-12-57-57,7,29,0.5463204346739876,left,heavy poles sphere,stripes-4,left,left,0.4742211742577638,0.23173824911873453
GKI1987W,2019-05-27-12-57-57,7,30,0.6137658733740057,right,stripes-8,stripes-8,right,right,0.2282184736277486,1.8158975178707806
GKI1987W,2019-05-27-12-57-57,7,31,0.501873341705699,right,heavy poles sphere,stripes-8,right,right,0.30201091820799775,0.3359905285133209
GKI1987W,2019-05-27-12-57-57,7,32,0.6437663033782073,left,heavy poles sphere,stripes-8,left,right,0.48290990083796714,0.2716932054463541
GKI1987W,2019-05-27-12-57-57,7,33,0.6343757030921797,left,stripes-4,stripes-2,right,right,1.202117463099512,0.5358318618364137
GKI1987W,2019-05-27-12-57-57,7,34,0.6356550833744847,left,stripes-8,stripes-4,right,right,1.0173460432538377,0.3359746680657736
GKI1987W,2019-05-27-12-57-57,7,35,0.6336353603580523,left,heavy poles sphere,stripes-2,right,right,1.1615822009698604,0.271803295614518
GKI1987W,2019-05-27-12-57-57,7,36,0.6750349370247352,left,stripes-4,stripes-8,left,left,0.38781687464552306,0.3037241575771077
GKI1987W,2019-05-27-12-57-57,7,37,0.5969042188068475,left,stripes-2,heavy poles sphere,left,left,0.5765384790020107,0.2238080251381689
GKI1987W,2019-05-27-12-57-57,7,38,0.5583641542334493,left,stripes-4,heavy poles sphere,left,left,0.30664123604537963,0.29584649076696223
GKI1987W,2019-05-27-12-57-57,7,39,0.6396235710336112,right,heavy poles sphere,stripes-4,right,right,1.1855638202659975,0.29570903355124756
GKI1987W,2019-05-27-12-57-57,7,40,0.6130104845128301,right,stripes-2,stripes-2,right,left,0.8435407237216168,0.8478314413787302
GKI1987W,2019-05-27-12-57-57,7,41,0.6425592674916699,right,stripes-8,heavy poles sphere,left,left,0.3816524472049423,0.3037521466026192
GKI1987W,2019-05-27-12-57-57,7,42,0.6069333472374009,left,stripes-4,stripes-4,left,right,2.0009174180686387,0.4077634093864617
GKI1987W,2019-05-27-12-57-57,7,43,0.6274206802328718,left,stripes-8,stripes-8,left,right,0.36569776952319444,0.3278037384629897
GKI1987W,2019-05-27-12-57-57,7,44,0.5841885103750858,left,stripes-2,stripes-4,left,right,1.06573937987514,0.24784375655008262
GKI1987W,2019-05-27-12-57-57,7,45,0.5447276980223136,right,stripes-2,stripes-8,right,left,2.2540228004822893,0.27191649567475906
GKI1987W,2019-05-27-12-57-57,7,46,0.5112429592298835,left,stripes-8,stripes-2,left,left,0.49816516386317744,0.2958132149251469
GKI1987W,2019-05-27-12-57-57,7,47,0.5260655038290152,right,heavy poles sphere,heavy poles sphere,right,right,0.2949066814780963,0.29601100404124736
GKI1987W,2019-05-27-12-57-57,8,0,0.6104832430840252,right,stripes-8,stripes-8,right,right,0.7743705112598036,0.3758556089696867
GKI1987W,2019-05-27-12-57-57,8,1,0.6158020412742666,left,stripes-8,stripes-2,left,right,1.0547480894379078,0.2878058656287976
GKI1987W,2019-05-27-12-57-57,8,2,0.5483802250539833,right,stripes-8,heavy poles sphere,right,left,0.5863794204778969,0.2958331182326219
GKI1987W,2019-05-27-12-57-57,8,3,0.6179022381685746,right,heavy poles sphere,stripes-2,right,left,0.7903743252313689,0.2638105628093399
GKI1987W,2019-05-27-12-57-57,8,4,0.5264258299177237,right,stripes-2,stripes-4,right,right,0.7182428738387898,0.24781607851355147
GKI1987W,2019-05-27-12-57-57,8,5,0.6950547937686177,right,stripes-4,stripes-2,right,right,1.6180151053663394,0.24781296862192903
GKI1987W,2019-05-27-12-57-57,8,6,0.6109050605184446,right,stripes-8,stripes-4,right,right,0.4125510877470333,0.2719584792130263
GKI1987W,2019-05-27-12-57-57,8,7,0.5262413200535416,right,stripes-2,stripes-8,right,right,0.3154021121140431,0.30379786201137904
GKI1987W,2019-05-27-12-57-57,8,8,0.6747928630801149,left,stripes-4,stripes-8,left,left,0.8548218560704299,0.31184968276011205
GKI1987W,2019-05-27-12-57-57,8,9,0.6237836224681076,left,stripes-4,stripes-4,left,right,0.3899088988305266,0.343805997488289
GKI1987W,2019-05-27-12-57-57,8,10,0.6703667968625336,left,stripes-4,heavy poles sphere,left,left,0.7259280383486839,0.33595756366094065
GKI1987W,2019-05-27-12-57-57,8,11,0.6742459602361996,left,heavy poles sphere,stripes-8,right,left,1.912248495278618,0.3918071767593574
GKI1987W,2019-05-27-12-57-57,8,12,0.5404545195761342,left,stripes-2,heavy poles sphere,right,left,1.3091509186933763,0.343858865648599
GKI1987W,2019-05-27-12-57-57,8,13,0.5181780566299815,left,heavy poles sphere,stripes-4,right,left,0.6779100656622177,0.20783593206260775
GKI1987W,2019-05-27-12-57-57,8,14,0.5461775791737492,left,stripes-2,stripes-2,right,left,0.9560441679263931,0.6556982857650837
GKI1987W,2019-05-27-12-57-57,8,15,0.6937208295275542,left,heavy poles sphere,heavy poles sphere,right,right,0.9764842424892777,0.23982054680618603
GKI1987W,2019-05-27-12-57-57,8,16,0.6053110681674055,right,stripes-2,stripes-4,right,left,0.894276119825463,0.22380615920292257
GKI1987W,2019-05-27-12-57-57,8,17,0.6636445528629611,right,stripes-2,heavy poles sphere,right,right,1.3034181442280897,0.3117218662086998
GKI1987W,2019-05-27-12-57-57,8,18,0.554983005658478,left,stripes-8,heavy poles sphere,left,left,0.256133484017937,0.3279212923716841
GKI1987W,2019-05-27-12-57-57,8,19,0.6671688763972752,right,stripes-4,stripes-4,right,right,0.445720260260714,0.287832610697933
GKI1987W,2019-05-27-12-57-57,8,20,0.5931555470921837,right,heavy poles sphere,stripes-2,right,right,0.2891844806449626,0.25583275748522283
GKI1987W,2019-05-27-12-57-57,8,21,0.6312980389874133,left,stripes-8,stripes-8,left,left,0.040700086392462254,0.3357308525519329
GKI1987W,2019-05-27-12-57-57,8,22,0.6589456061950922,right,stripes-8,stripes-4,right,right,0.6382636105968231,0.271812314300405
GKI1987W,2019-05-27-12-57-57,8,23,0.54730322829308,right,stripes-2,stripes-8,right,left,0.24290027261304203,0.3599310972385865
GKI1987W,2019-05-27-12-57-57,8,24,0.6655741858086355,right,stripes-4,stripes-8,right,right,0.27700521155657043,0.27195350338615754
GKI1987W,2019-05-27-12-57-57,8,25,0.651249221040627,right,stripes-2,stripes-2,right,left,1.236498871420281,0.27995680982303384
GKI1987W,2019-05-27-12-57-57,8,26,0.6407908473056529,left,stripes-4,heavy poles sphere,left,right,0.43807739027806747,0.35976440703962
GKI1987W,2019-05-27-12-57-57,8,27,0.5997324209603551,left,stripes-8,stripes-2,left,left,0.3173675637044653,0.27981997458618935
GKI1987W,2019-05-27-12-57-57,8,28,0.6725365393089658,left,stripes-4,stripes-2,left,right,0.31349637044513656,0.27177934944802473
GKI1987W,2019-05-27-12-57-57,8,29,0.6703806558546933,right,heavy poles sphere,stripes-4,right,left,0.5036507019340206,0.3999622459141392
GKI1987W,2019-05-27-12-57-57,8,30,0.505488786833779,right,heavy poles sphere,heavy poles sphere,right,right,0.392533958462991,0.2796825173700199
GKI1987W,2019-05-27-12-57-57,8,31,0.5344840157776167,right,heavy poles sphere,stripes-8,right,right,0.41674135590028527,0.3276656592688596
GKI1987W,2019-05-27-12-57-57,8,32,0.6873144927408621,left,heavy poles sphere,stripes-2,right,right,0.4639914963117917,0.8717912914326007
GKI1987W,2019-05-27-12-57-57,8,33,0.6075603369641792,right,stripes-4,heavy poles sphere,right,right,0.34560382591325833,0.2958312522973756
GKI1987W,2019-05-27-12-57-57,8,34,0.5474705871301254,left,stripes-2,stripes-4,right,left,1.153048346999185,0.29584742373481276
GKI1987W,2019-05-27-12-57-57,8,35,0.6063457109813325,right,stripes-8,stripes-8,right,right,0.3892803897065278,0.23180822168342274
GKI1987W,2019-05-27-12-57-57,8,36,0.6168270936339041,left,stripes-8,stripes-2,left,right,1.8347686520419302,0.4077055654001924
GKI1987W,2019-05-27-12-57-57,8,37,0.6283620513500041,left,stripes-4,stripes-2,left,right,0.42957276929018917,0.2797783020364477
GKI1987W,2019-05-27-12-57-57,8,38,0.5950635412653384,left,stripes-4,stripes-8,right,left,0.8723050455505472,0.21583115278099285
GKI1987W,2019-05-27-12-57-57,8,39,0.5308644432140682,right,stripes-2,heavy poles sphere,right,right,0.6715058655668145,0.26396730135411417
GKI1987W,2019-05-27-12-57-57,8,40,0.6192053496406091,left,heavy poles sphere,stripes-4,left,right,0.7695452032098729,0.28782421399046143
GKI1987W,2019-05-27-12-57-57,8,41,0.6823659647721098,right,stripes-2,stripes-8,right,left,0.8584999250515466,0.1918159466540601
GKI1987W,2019-05-27-12-57-57,8,42,0.5432191569039414,left,heavy poles sphere,heavy poles sphere,right,left,0.7084569774465308,0.1998136552856522
GKI1987W,2019-05-27-12-57-57,8,43,0.6391349024202251,right,stripes-8,heavy poles sphere,left,left,0.4463798683023015,0.21594746273285637
GKI1987W,2019-05-27-12-57-57,8,44,0.6026535657150404,right,heavy poles sphere,stripes-8,left,left,0.4525505155265819,0.2159452858086297
GKI1987W,2019-05-27-12-57-57,8,45,0.6076160784486709,left,stripes-8,stripes-4,left,right,0.6081782067494714,0.21567845709569156
GKI1987W,2019-05-27-12-57-57,8,46,0.695941381161354,right,stripes-4,stripes-4,left,right,0.41010142600998734,0.23168755788265116
GKI1987W,2019-05-27-12-57-57,8,47,0.5402272147736694,left,stripes-2,stripes-2,left,left,0.4741670621410776,0.24799583025696847
GKI1987W,2019-05-27-12-57-57,9,0,0.5418266660894862,left,stripes-8,stripes-2,left,left,0.8359768449900002,0.20794042442548744
GKI1987W,2019-05-27-12-57-57,9,1,0.5180855624145869,right,stripes-4,stripes-4,right,right,0.4918754077843914,0.2638208254525125
GKI1987W,2019-05-27-12-57-57,9,2,0.6606657654116869,right,stripes-2,stripes-8,right,right,0.21856723554856217,0.2638391738137216
GKI1987W,2019-05-27-12-57-57,9,3,0.6157088617895379,right,heavy poles sphere,heavy poles sphere,right,right,0.27222966177441776,0.27186020663384625
GKI1987W,2019-05-27-12-57-57,9,4,0.5570280689882775,left,stripes-4,stripes-8,left,left,0.28387278552372663,0.31205400264843774
GKI1987W,2019-05-27-12-57-57,9,5,0.5176789492849233,right,heavy poles sphere,stripes-2,right,right,0.24748114317117142,0.2718275527699916
GKI1987W,2019-05-27-12-57-57,9,6,0.5682548390430979,right,stripes-2,stripes-2,left,left,0.6110825346613638,0.35996748297156955
GKI1987W,2019-05-27-12-57-57,9,7,0.6983804285145303,right,stripes-2,heavy poles sphere,left,left,0.7442303733173503,0.20784246283528773
GKI1987W,2019-05-27-12-57-57,9,8,0.5074294918335132,right,stripes-8,stripes-4,left,right,0.6049373885493878,0.24780332795717186
GKI1987W,2019-05-27-12-57-57,9,9,0.5746218392464595,right,stripes-8,heavy poles sphere,right,right,0.30832244352905036,0.22399679556747287
GKI1987W,2019-05-27-12-57-57,9,10,0.5717381147013967,left,stripes-4,heavy poles sphere,left,left,0.28004077690093254,0.30372260263129647
GKI1987W,2019-05-27-12-57-57,9,11,0.6263049725572786,right,stripes-8,stripes-8,right,right,0.302885730759499,0.3276914713705992
GKI1987W,2019-05-27-12-57-57,9,12,0.5443898002886401,right,stripes-4,stripes-2,right,right,0.2624397225231405,0.327605949347344
GKI1987W,2019-05-27-12-57-57,9,13,0.6340425048419353,left,heavy poles sphere,stripes-4,left,right,0.4139645335503701,0.2797030426559104
GKI1987W,2019-05-27-12-57-57,9,14,0.5099699386579218,left,heavy poles sphere,stripes-8,left,right,0.43005760141477367,0.2717858802207047
GKI1987W,2019-05-27-12-57-57,9,15,0.6005953950533294,right,stripes-2,stripes-4,left,right,0.8729049436706191,0.2397431105009673
GKI1987W,2019-05-27-12-57-57,9,16,0.5338664698995644,right,heavy poles sphere,stripes-8,right,left,0.8386703222404321,0.21591200996681437
GKI1987W,2019-05-27-12-57-57,9,17,0.5009576460832964,left,stripes-4,stripes-8,left,left,0.5345272622439552,0.2158280428893704
GKI1987W,2019-05-27-12-57-57,9,18,0.5951245721346377,right,stripes-8,stripes-8,right,right,0.5834194255035072,0.23168755788265116
GKI1987W,2019-05-27-12-57-57,9,19,0.5855084496104331,left,stripes-2,stripes-8,left,left,0.3979964833347367,0.23191831185113188
GKI1987W,2019-05-27-12-57-57,9,20,0.531431036435491,left,stripes-2,heavy poles sphere,left,left,0.3203667433153896,0.2637038935226883
GKI1987W,2019-05-27-12-57-57,9,21,0.6476792006759113,left,heavy poles sphere,heavy poles sphere,left,left,0.23247342752983968,0.28785127004857713
GKI1987W,2019-05-27-12-57-57,9,22,0.5845991696954883,left,stripes-8,heavy poles sphere,left,left,0.6288900858517081,0.2476997685621427
GKI1987W,2019-05-27-12-57-57,9,23,0.5598206469268256,right,stripes-4,stripes-4,right,right,0.49011147717965287,0.2958234775683195
GKI1987W,2019-05-27-12-57-57,9,24,0.61631695518744,right,stripes-4,heavy poles sphere,right,right,0.27425948812424394,0.2797017986990795
GKI1987W,2019-05-27-12-57-57,9,25,0.600190188598607,left,stripes-4,stripes-2,left,right,0.9231371592877622,0.2396610093592244
GKI1987W,2019-05-27-12-57-57,9,26,0.5515635424031271,right,stripes-8,stripes-4,right,right,0.3575234190402625,0.3759629002352085
GKI1987W,2019-05-27-12-57-57,9,27,0.6624456859748863,left,stripes-8,stripes-2,left,right,0.7082066311600101,0.287790627159211
GKI1987W,2019-05-27-12-57-57,9,28,0.6996056175667345,left,stripes-2,stripes-2,left,right,0.9113158387408475,0.27193795392759057
GKI1987W,2019-05-27-12-57-57,9,29,0.6404886060566635,left,stripes-2,stripes-4,right,right,0.4930867106236292,0.5357220826567755
GKI1987W,2019-05-27-12-57-57,9,30,0.5515717913378089,left,heavy poles sphere,stripes-4,right,right,0.3902525418698133,0.2399390336822762
GKI1987W,2019-05-27-12-57-57,9,31,0.5603220999220868,right,heavy poles sphere,stripes-2,right,right,0.3345553134677175,0.26374307815831344
GKI1987W,2019-05-27-12-57-57,9,32,0.5647630234448889,left,heavy poles sphere,heavy poles sphere,right,right,0.2808686300863883,0.23965852144556266
GKI1987W,2019-05-27-12-57-57,9,33,0.6789499559010782,right,heavy poles sphere,stripes-2,right,right,0.21694853688904914,0.30386348072761393
GKI1987W,2019-05-27-12-57-57,9,34,0.6302403643981014,left,stripes-2,stripes-2,left,right,0.5945037017040704,0.27995898674771524
GKI1987W,2019-05-27-12-57-57,9,35,0.6685072940051098,left,stripes-4,heavy poles sphere,left,left,0.3964499341636838,0.31979825510188675
GKI1987W,2019-05-27-12-57-57,9,36,0.6185234013753094,right,stripes-8,heavy poles sphere,right,right,0.41458931080433103,0.3279368418307058
GKI1987W,2019-05-27-12-57-57,9,37,0.6642540581202151,left,heavy poles sphere,stripes-8,left,left,0.7266902728183595,0.27171652963443194
GKI1987W,2019-05-27-12-57-57,9,38,0.5766943676616801,left,stripes-8,stripes-8,left,right,0.26997530123935576,0.26369145395528903
GKI1987W,2019-05-27-12-57-57,9,39,0.6294753539333389,right,stripes-4,stripes-8,right,right,0.28673575187576716,0.2958523995612268
GKI1987W,2019-05-27-12-57-57,9,40,0.6876094961928721,right,stripes-2,stripes-8,right,right,0.28286642455123,0.28778316341913524
GKI1987W,2019-05-27-12-57-57,9,41,0.6599944472087411,left,heavy poles sphere,stripes-4,left,right,0.506398602290119,0.30377889167175454
GKI1987W,2019-05-27-12-57-57,9,42,0.6013817580174394,left,stripes-8,stripes-4,right,right,0.6970414977736255,0.25587225311028305
GKI1987W,2019-05-27-12-57-57,9,43,0.5440699467226567,right,stripes-8,stripes-2,right,right,0.49227129700511796,0.2637987452208108
GKI1987W,2019-05-27-12-57-57,9,44,0.6280362189982589,right,stripes-4,stripes-4,right,right,0.276399404642234,0.2718110703435741
GKI1987W,2019-05-27-12-57-57,9,45,0.5138029638969648,right,stripes-2,heavy poles sphere,right,left,0.26678019844848677,0.21577952857796845
GKI1987W,2019-05-27-12-57-57,9,46,0.6376880156238789,right,stripes-2,stripes-4,right,left,0.9249673305871511,0.1598406615858039
GKI1987W,2019-05-27-12-57-57,9,47,0.6222760098198552,right,stripes-4,stripes-2,right,left,0.2635583505880277,0.18372152038864442
GKI1987W,2019-05-27-12-57-57,10,0,0.5343125991481633,left,heavy poles sphere,heavy poles sphere,left,left,1.0364134115948218,0.31167521783254415
GKI1987W,2019-05-27-12-57-57,10,1,0.6779207646290367,right,stripes-4,stripes-8,right,right,0.26514097450308327,0.2718409253043319
GKI1987W,2019-05-27-12-57-57,10,2,0.6751436264611547,left,stripes-4,stripes-4,left,left,0.4401488891776353,0.2476649377740614
GKI1987W,2019-05-27-12-57-57,10,3,0.5105576568698339,right,heavy poles sphere,stripes-4,right,right,0.16893429607307553,0.26383108809523037
GKI1987W,2019-05-27-12-57-57,10,4,0.6831967352618129,left,stripes-4,heavy poles sphere,left,left,0.15655723786903764,0.25579046295706576
GKI1987W,2019-05-27-12-57-57,10,5,0.6569337088685163,left,stripes-4,stripes-2,left,right,0.46411371505791976,0.2959195732232729
GKI1987W,2019-05-27-12-57-57,10,6,0.6030652012694394,right,stripes-2,stripes-2,left,right,0.7289794641405933,0.2558165860477857
GKI1987W,2019-05-27-12-57-57,10,7,0.6279105703459272,left,stripes-8,heavy poles sphere,left,left,0.512920667283197,0.27168294280363625
GKI1987W,2019-05-27-12-57-57,10,8,0.6508760329319139,right,stripes-2,stripes-8,right,left,0.4468858476911919,0.16772579213602512
GKI1987W,2019-05-27-12-57-57,10,9,0.5016062187433498,left,stripes-8,stripes-4,left,right,0.7216696635655353,0.23194785582290933
GKI1987W,2019-05-27-12-57-57,10,10,0.5374726411270698,right,stripes-8,stripes-2,right,left,1.3169467953498497,0.30396859506890905
GKI1987W,2019-05-27-12-57-57,10,11,0.5706726015967709,right,stripes-2,stripes-4,right,right,0.8756938945984984,0.2639539288193191
GKI1987W,2019-05-27-12-57-57,10,12,0.5843227011141514,right,stripes-8,stripes-8,right,right,0.3255960263045381,0.30373286527401433
GKI1987W,2019-05-27-12-57-57,10,13,0.6897552039406836,right,stripes-2,heavy poles sphere,left,right,0.7929315892233717,0.23178334254907895
GKI1987W,2019-05-27-12-57-57,10,14,0.6058000230076528,left,heavy poles sphere,stripes-2,left,left,0.5361297894664858,0.2158361286078616
GKI1987W,2019-05-27-12-57-57,10,15,0.6081796987593588,right,heavy poles sphere,stripes-8,left,left,0.29036717248027344,0.2558464410089982
GKI1987W,2019-05-27-12-57-57,10,16,0.5302065690422637,right,heavy poles sphere,heavy poles sphere,left,left,0.30528252433623493,0.2558063234050678
GKI1987W,2019-05-27-12-57-57,10,17,0.6478520323223937,left,heavy poles sphere,stripes-8,right,right,0.4014615247301663,0.21588122203820603
GKI1987W,2019-05-27-12-57-57,10,18,0.5604518111751847,left,stripes-8,heavy poles sphere,right,right,0.26642131693961346,0.2479619324367377
GKI1987W,2019-05-27-12-57-57,10,19,0.5845001948488422,right,stripes-4,stripes-8,right,right,0.9019609733463767,0.2718179121056892
GKI1987W,2019-05-27-12-57-57,10,20,0.57663532416547,left,stripes-2,stripes-4,left,right,0.2950827013514754,0.3198029199393204
GKI1987W,2019-05-27-12-57-57,10,21,0.698896467359803,left,stripes-2,stripes-8,right,right,0.17786030739398484,0.28782483596887687
GKI1987W,2019-05-27-12-57-57,10,22,0.687251643526829,right,stripes-2,stripes-2,right,right,0.6828743858741291,0.3996935512664095
GKI1987W,2019-05-27-12-57-57,10,23,0.6484350870150101,left,stripes-8,stripes-4,right,left,0.4525386979380528,0.15978841540436406
GKI1987W,2019-05-27-12-57-57,10,24,0.6139740715539989,left,stripes-8,stripes-2,left,left,0.32285185781802284,0.3117072497175286
GKI1987W,2019-05-27-12-57-57,10,25,0.6501270978272973,right,stripes-4,stripes-2,right,left,1.0469316874955439,0.17566907766195072
GKI1987W,2019-05-27-12-57-57,10,26,0.6894253102343946,left,heavy poles sphere,stripes-4,left,left,0.4025910374166415,0.22380740315975345
GKI1987W,2019-05-27-12-57-57,10,27,0.6619401684402895,right,stripes-8,stripes-8,right,right,0.7339615107357531,0.2318219052067434
GKI1987W,2019-05-27-12-57-57,10,28,0.6243744899456359,right,stripes-4,stripes-4,right,right,0.34912329041480916,0.24781794444834304
GKI1987W,2019-05-27-12-57-57,10,29,0.5462158404109444,right,stripes-4,heavy poles sphere,right,left,0.2880571448831688,0.25584333111692104
GKI1987W,2019-05-27-12-57-57,10,30,0.5846821755225236,left,heavy poles sphere,stripes-2,left,left,0.1631442995994803,0.30368994876789657
GKI1987W,2019-05-27-12-57-57,10,31,0.6794849578382224,right,stripes-2,heavy poles sphere,left,right,0.7980893447024755,0.2157033362295806
GKI1987W,2019-05-27-12-57-57,10,32,0.5097169809448509,right,heavy poles sphere,heavy poles sphere,right,right,0.3866127245573807,0.20784401778109896
GKI1987W,2019-05-27-12-57-57,10,33,0.6715062432728256,right,stripes-8,stripes-8,right,right,0.32743179540875644,0.2558044574698215
GKI1987W,2019-05-27-12-57-57,10,34,0.6060590395014438,right,stripes-2,stripes-4,right,right,0.28693571791563954,0.33584498557956977
GKI1987W,2019-05-27-12-57-57,10,35,0.5939054445622789,right,stripes-2,stripes-8,right,right,0.18993850500055487,0.24767146854674138
GKI1987W,2019-05-27-12-57-57,10,36,0.5219230014321314,right,heavy poles sphere,stripes-2,right,left,0.495548189949659,0.17594057121232254
GKI1987W,2019-05-27-12-57-57,10,37,0.632616528867073,left,stripes-2,heavy poles sphere,left,right,0.1717276008494082,0.287859044778088
GKI1987W,2019-05-27-12-57-57,10,38,0.5071493503934308,right,stripes-8,heavy poles sphere,right,left,0.6774463808014843,0.2638469485427777
GKI1987W,2019-05-27-12-57-57,10,39,0.6052889368266418,left,stripes-8,stripes-4,left,right,0.9101029809557986,0.2796946459479841
GKI1987W,2019-05-27-12-57-57,10,40,0.6477310646832528,right,heavy poles sphere,stripes-4,right,left,0.4604748307133377,0.23969957201688885
GKI1987W,2019-05-27-12-57-57,10,41,0.5634605590256858,right,stripes-8,stripes-2,right,right,0.5446313005627417,0.3838287494568249
GKI1987W,2019-05-27-12-57-57,10,42,0.5902030692896175,right,heavy poles sphere,stripes-8,right,right,0.2117979341614955,0.24784157962585596
GKI1987W,2019-05-27-12-57-57,10,43,0.6870210556226651,left,stripes-4,stripes-4,left,left,0.4046858605042871,0.2719762055958199
GKI1987W,2019-05-27-12-57-57,10,44,0.5873502735876378,left,stripes-4,heavy poles sphere,left,left,0.2902119888813104,2.2638432166731945
GKI1987W,2019-05-27-12-57-57,10,45,0.5840371031905911,right,stripes-2,stripes-2,left,right,1.306025788466286,0.32796420887780187
GKI1987W,2019-05-27-12-57-57,10,46,0.5248201334683622,right,stripes-4,stripes-8,right,right,0.30616915447672,0.3198268661062684
GKI1987W,2019-05-27-12-57-57,10,47,0.5197886542487223,right,stripes-4,stripes-2,right,left,0.41903738898463416,0.17585411622121683
