Participant,Session,Block,Trial,OnsetDelay,Bias,Shape1,Shape2,Response1,Response2,RT1,RT2
CHE1998M,2019-05-22-16-56-09,0,0,0.6940683521721465,right,stripes-8,stripes-4,right,right,18.360912581726552,0.26364964892923126
CHE1998M,2019-05-22-16-56-09,0,1,0.5842517957926219,left,heavy poles sphere,heavy poles sphere,left,left,1.8020963790748965,0.24782604233496386
CHE1998M,2019-05-22-16-56-09,0,2,0.5376191939622772,right,stripes-8,heavy poles sphere,right,right,0.7692306735389138,0.2399714627723597
CHE1998M,2019-05-22-16-56-09,0,3,0.6624400498031344,right,stripes-2,stripes-2,right,right,1.3082667459505046,0.23193805903929388
CHE1998M,2019-05-22-16-56-09,0,4,0.593370050084814,right,heavy poles sphere,stripes-8,right,right,0.7418603125100844,0.22382130769290143
CHE1998M,2019-05-22-16-56-09,0,5,0.6501503392999165,right,stripes-2,heavy poles sphere,left,left,0.7962492951995728,0.21582957776649891
CHE1998M,2019-05-22-16-56-09,0,6,0.6993589808825671,left,stripes-4,stripes-2,right,right,1.397986719739606,0.22382255168713527
CHE1998M,2019-05-22-16-56-09,0,7,0.5223903493857038,right,stripes-2,stripes-4,right,right,0.6062067848067727,0.20769509950252996
CHE1998M,2019-05-22-16-56-09,0,8,0.6519419673880111,left,heavy poles sphere,stripes-4,right,right,0.6507050803791117,0.1998666438186092
CHE1998M,2019-05-22-16-56-09,0,9,0.5041655381834388,right,stripes-4,heavy poles sphere,right,right,1.4041012623741835,0.22379456181704427
CHE1998M,2019-05-22-16-56-09,0,10,0.6633794542403403,left,stripes-4,stripes-8,right,right,0.6622036300373111,0.19181551316785317
CHE1998M,2019-05-22-16-56-09,0,11,0.5610368258954294,right,stripes-8,stripes-8,right,right,0.7562063649586435,0.19186216295145186
CHE1998M,2019-05-22-16-56-09,0,12,0.5793864385239488,left,stripes-8,stripes-2,right,right,0.8294241333013588,0.22388412940154012
CHE1998M,2019-05-22-16-56-09,0,13,0.6969617711344192,right,heavy poles sphere,stripes-2,right,right,0.8144032139834962,0.223804202772385
CHE1998M,2019-05-22-16-56-09,0,14,0.6512668834360053,right,stripes-2,stripes-8,right,right,1.0168091610222518,0.17586501916207453
CHE1998M,2019-05-22-16-56-09,0,15,0.5287210434236714,right,stripes-4,stripes-4,right,right,0.9858875074678508,0.16793486695019055
CHE1998M,2019-05-22-16-56-09,0,16,0.5068546440763462,left,stripes-2,stripes-8,right,right,0.6616935924034806,0.2079541613005631
CHE1998M,2019-05-22-16-56-09,0,17,0.6953825240195057,right,heavy poles sphere,heavy poles sphere,right,right,0.7357809127123573,0.2077293093436765
CHE1998M,2019-05-22-16-56-09,0,18,0.5708225050391355,right,stripes-2,stripes-4,right,right,0.6976982063780497,0.2157064223379166
CHE1998M,2019-05-22-16-56-09,0,19,0.5622993831265731,left,stripes-8,stripes-4,right,right,0.7808231447613707,0.20785806274648166
CHE1998M,2019-05-22-16-56-09,0,20,0.5304455146460882,right,stripes-8,stripes-8,right,right,0.7021930685262987,0.1837410576252978
CHE1998M,2019-05-22-16-56-09,0,21,0.5977221908679721,left,stripes-4,stripes-4,right,right,0.6253857548354063,0.19994439345794035
CHE1998M,2019-05-22-16-56-09,0,22,0.6238338836914101,left,stripes-4,heavy poles sphere,right,right,0.6547309567031334,0.19180431721974855
CHE1998M,2019-05-22-16-56-09,0,23,0.5770143444530478,left,stripes-2,heavy poles sphere,right,right,0.741381374731759,0.19181551316785317
CHE1998M,2019-05-22-16-56-09,0,24,0.6419682708239332,right,stripes-4,stripes-8,right,right,0.6445973797127635,0.17581961337282337
CHE1998M,2019-05-22-16-56-09,0,25,0.6127660012271382,right,heavy poles sphere,stripes-2,right,right,0.7546463961953123,0.19980537710284807
CHE1998M,2019-05-22-16-56-09,0,26,0.5308674145843231,left,stripes-2,stripes-2,right,right,0.9252247508823075,0.24793551382708756
CHE1998M,2019-05-22-16-56-09,0,27,0.6053903710759189,right,stripes-4,stripes-2,right,right,0.7083906477757864,0.19180462821839228
CHE1998M,2019-05-22-16-56-09,0,28,0.6362110500227461,right,heavy poles sphere,stripes-8,right,right,0.8141693430684427,0.1998454959167475
CHE1998M,2019-05-22-16-56-09,0,29,0.5397215612915169,left,stripes-8,heavy poles sphere,right,right,0.879417462382321,0.1847247460618746
CHE1998M,2019-05-22-16-56-09,0,30,0.558527858717451,left,heavy poles sphere,stripes-4,right,right,0.9259531095035527,0.20795571629344067
CHE1998M,2019-05-22-16-56-09,0,31,0.6148339191227926,left,stripes-8,stripes-2,right,right,0.8703179555949418,0.20784251281861543
CHE1998M,2019-05-22-16-56-09,0,32,0.6906977066929889,left,stripes-8,stripes-8,right,right,0.7175091254750896,0.23968783208817968
CHE1998M,2019-05-22-16-56-09,0,33,0.6781793919877943,right,heavy poles sphere,stripes-4,right,right,0.7792252341741914,0.19184661302358563
CHE1998M,2019-05-22-16-56-09,0,34,0.507811769914293,left,stripes-2,heavy poles sphere,right,right,0.8785475994176295,0.19184163704665025
CHE1998M,2019-05-22-16-56-09,0,35,0.6845654188496193,right,stripes-4,heavy poles sphere,right,right,1.6796061763069474,0.1918183121548509
CHE1998M,2019-05-22-16-56-09,0,36,0.5646281682460377,right,stripes-8,stripes-4,right,right,0.683414975637902,0.20785184277531243
CHE1998M,2019-05-22-16-56-09,0,37,0.5347199849717857,right,stripes-2,stripes-4,right,right,0.936719257559389,0.22383063764971212
CHE1998M,2019-05-22-16-56-09,0,38,0.5989768564964021,left,heavy poles sphere,heavy poles sphere,right,right,1.0593285727748025,0.1917946762645215
CHE1998M,2019-05-22-16-56-09,0,39,0.5728355603096886,left,stripes-8,heavy poles sphere,right,right,1.0735057530067706,0.19984425192251365
CHE1998M,2019-05-22-16-56-09,0,40,0.5194356249758081,right,stripes-8,stripes-2,right,right,0.8878427242975704,0.19183324008554337
CHE1998M,2019-05-22-16-56-09,0,41,0.6743180064832401,right,stripes-4,stripes-4,right,right,0.9276119758079631,0.1918497230091134
CHE1998M,2019-05-22-16-56-09,0,42,0.5340678691975588,right,stripes-4,stripes-8,right,right,0.9713794247708165,0.1839600006096589
CHE1998M,2019-05-22-16-56-09,0,43,0.5098967218578673,right,heavy poles sphere,stripes-8,right,right,0.8559886970683692,0.1996996375934259
CHE1998M,2019-05-22-16-56-09,0,44,0.5460418383296193,right,heavy poles sphere,stripes-2,right,right,0.6944420514834064,0.175833297309282
CHE1998M,2019-05-22-16-56-09,0,45,0.5226171784180579,right,stripes-2,stripes-2,right,right,0.7492642551630979,0.21570828832921052
CHE1998M,2019-05-22-16-56-09,0,46,0.5575292932876745,left,stripes-4,stripes-2,right,right,0.5823146316423617,0.2399646208041304
CHE1998M,2019-05-22-16-56-09,0,47,0.6150653352378911,right,stripes-2,stripes-8,right,right,0.7309688320356145,0.215960197160598
CHE1998M,2019-05-22-16-56-09,1,0,0.6171297210766364,right,stripes-8,stripes-8,right,right,0.6253997497706223,0.16768762309720842
CHE1998M,2019-05-22-16-56-09,1,1,0.5198937556799396,right,heavy poles sphere,stripes-4,right,right,0.5726742983640634,0.19987752876818377
CHE1998M,2019-05-22-16-56-09,1,2,0.5726848636348385,left,heavy poles sphere,heavy poles sphere,right,right,0.6241762814461254,0.1918634069456857
CHE1998M,2019-05-22-16-56-09,1,3,0.6077283009348042,right,heavy poles sphere,stripes-8,right,right,0.7276386594842279,0.21573721119511902
CHE1998M,2019-05-22-16-56-09,1,4,0.5352666533437861,left,stripes-4,stripes-4,right,left,1.5396213716965121,0.29569058629135725
CHE1998M,2019-05-22-16-56-09,1,5,0.622696595138782,left,heavy poles sphere,stripes-2,left,right,2.336620484417608,0.2558426521459296
CHE1998M,2019-05-22-16-56-09,1,6,0.671864742849948,right,stripes-2,stripes-4,right,left,1.483903181172991,0.2637000306954178
CHE1998M,2019-05-22-16-56-09,1,7,0.5981801887496931,left,stripes-2,heavy poles sphere,left,right,3.013626401787178,0.16782041948113147
CHE1998M,2019-05-22-16-56-09,1,8,0.644505833695777,right,stripes-4,heavy poles sphere,left,right,1.69907344199828,0.18380978830623462
CHE1998M,2019-05-22-16-56-09,1,9,0.5397817523923512,right,stripes-2,stripes-8,right,right,0.7123745392946148,0.23171040809552323
CHE1998M,2019-05-22-16-56-09,1,10,0.5448819857325118,left,stripes-8,heavy poles sphere,right,right,0.5170410104467464,0.2157014463609812
CHE1998M,2019-05-22-16-56-09,1,11,0.5496202999556161,left,stripes-8,stripes-4,left,left,0.6490847778957232,0.23181583660630167
CHE1998M,2019-05-22-16-56-09,1,12,0.6804286434708209,right,stripes-4,stripes-2,right,right,0.7056379995453881,0.21581651582710037
CHE1998M,2019-05-22-16-56-09,1,13,0.5122284715819335,left,stripes-4,stripes-8,left,left,0.6237296875178799,0.18372644069313537
CHE1998M,2019-05-22-16-56-09,1,14,0.5019404832225669,right,stripes-8,stripes-2,right,right,0.36240475280442297,0.215957709172244
CHE1998M,2019-05-22-16-56-09,1,15,0.6581467414818329,right,stripes-2,stripes-2,left,left,0.7998015207206208,0.47983905202659116
CHE1998M,2019-05-22-16-56-09,1,16,0.5084433605279738,right,heavy poles sphere,heavy poles sphere,right,right,0.409695504422416,0.20796815623566545
CHE1998M,2019-05-22-16-56-09,1,17,0.5294656708732833,left,stripes-8,heavy poles sphere,left,left,0.32474593750362146,0.20767799458167246
CHE1998M,2019-05-22-16-56-09,1,18,0.5894721862527411,right,stripes-2,stripes-4,right,left,0.6229714730354772,0.28787114956571713
CHE1998M,2019-05-22-16-56-09,1,19,0.669978680029651,left,stripes-4,heavy poles sphere,left,right,0.9680974569957925,0.23180464065831075
CHE1998M,2019-05-22-16-56-09,1,20,0.6091929569174722,left,stripes-2,stripes-8,right,left,2.862365411486735,0.1999667853540359
CHE1998M,2019-05-22-16-56-09,1,21,0.5899935358016026,left,stripes-8,stripes-8,left,left,0.5779345279618155,0.1999465704479917
CHE1998M,2019-05-22-16-56-09,1,22,0.5425176932233093,right,stripes-2,heavy poles sphere,right,right,1.2935064434236665,0.19970834555306283
CHE1998M,2019-05-22-16-56-09,1,23,0.5642114555791667,right,heavy poles sphere,stripes-2,left,right,0.8749058063119719,0.2398168964894012
CHE1998M,2019-05-22-16-56-09,1,24,0.6915168944187239,left,stripes-4,stripes-8,left,left,0.9052695284547099,0.15981313962674903
CHE1998M,2019-05-22-16-56-09,1,25,0.6236307754099261,right,stripes-4,stripes-2,left,left,0.948384191445939,0.1759710696703678
CHE1998M,2019-05-22-16-56-09,1,26,0.5624317401916767,left,stripes-2,stripes-2,left,left,1.8795813586220902,0.16771219198312792
CHE1998M,2019-05-22-16-56-09,1,27,0.6625531120441737,right,stripes-4,stripes-4,right,left,0.44113652556779925,0.2799217154431517
CHE1998M,2019-05-22-16-56-09,1,28,0.5785285336960242,right,heavy poles sphere,stripes-8,left,left,0.6692297094434707,0.1758454262530904
CHE1998M,2019-05-22-16-56-09,1,29,0.6385794566107013,right,stripes-8,stripes-4,left,left,1.1531848273757532,0.1598171826080943
CHE1998M,2019-05-22-16-56-09,1,30,0.5646102069792375,left,heavy poles sphere,stripes-4,left,right,0.6543726863649226,0.2396641961977366
CHE1998M,2019-05-22-16-56-09,1,31,0.615164381732097,left,stripes-8,stripes-2,left,right,0.8249386011098068,0.24771003987325457
CHE1998M,2019-05-22-16-56-09,1,32,0.5633489282052083,right,heavy poles sphere,heavy poles sphere,left,left,1.272644660201422,0.1679833827249695
CHE1998M,2019-05-22-16-56-09,1,33,0.5140838652538869,left,stripes-2,stripes-2,left,right,0.55305526537677,0.27973542730728695
CHE1998M,2019-05-22-16-56-09,1,34,0.6410150795987256,right,heavy poles sphere,stripes-8,right,right,0.43023011716240944,0.21584885967718037
CHE1998M,2019-05-22-16-56-09,1,35,0.5740314510210303,right,stripes-4,heavy poles sphere,right,right,0.4779233009139716,0.2156588395585004
CHE1998M,2019-05-22-16-56-09,1,36,0.618417825240407,right,stripes-2,heavy poles sphere,right,left,2.209848142514602,0.5358741500799624
CHE1998M,2019-05-22-16-56-09,1,37,0.5074877652847861,right,stripes-4,stripes-8,right,right,0.4050914817808007,0.23185968740290264
CHE1998M,2019-05-22-16-56-09,1,38,0.6319517193227759,left,stripes-8,heavy poles sphere,left,left,0.5465513525482493,0.17586315317066692
CHE1998M,2019-05-22-16-56-09,1,39,0.6774403220039587,left,stripes-8,stripes-8,left,left,0.529953048547668,2.3118945441212873
CHE1998M,2019-05-22-16-56-09,1,40,0.6150798036809828,left,heavy poles sphere,stripes-4,left,left,0.7743895176070055,0.3596881804064651
CHE1998M,2019-05-22-16-56-09,1,41,0.6757647985322779,left,stripes-2,stripes-4,left,left,0.5726463084938587,0.2718298439813225
CHE1998M,2019-05-22-16-56-09,1,42,0.5434265505839849,left,stripes-4,stripes-4,left,right,0.5720081394542831,0.28781299283559747
CHE1998M,2019-05-22-16-56-09,1,43,0.5148541488684137,right,stripes-4,stripes-2,right,right,0.4200271874938153,0.27983370285141973
CHE1998M,2019-05-22-16-56-09,1,44,0.5790325684007642,right,stripes-8,stripes-4,right,right,0.5121944089300996,0.27184166192660086
CHE1998M,2019-05-22-16-56-09,1,45,0.5347469437315293,right,stripes-8,stripes-2,right,right,0.4182815525919068,0.2798256168889566
CHE1998M,2019-05-22-16-56-09,1,46,0.6566869873454052,left,stripes-2,stripes-8,right,left,0.4189937392879983,0.34386426281366766
CHE1998M,2019-05-22-16-56-09,1,47,0.559021575916216,left,heavy poles sphere,stripes-2,left,right,0.542512414284829,0.3039594159322405
CHE1998M,2019-05-22-16-56-09,2,0,0.6476156792453037,right,stripes-2,stripes-4,right,right,0.48359093862154623,0.23994471689638885
CHE1998M,2019-05-22-16-56-09,2,1,0.5828208119886243,right,stripes-4,stripes-2,right,left,0.4463233595058682,0.3279750355238775
CHE1998M,2019-05-22-16-56-09,2,2,0.5854151941863284,right,stripes-2,stripes-8,right,right,0.4710349938686704,0.23184507047062652
CHE1998M,2019-05-22-16-56-09,2,3,0.5234288369427396,right,heavy poles sphere,stripes-4,right,right,0.6145536750855172,0.20783193886768458
CHE1998M,2019-05-22-16-56-09,2,4,0.6727864436568792,left,stripes-8,stripes-8,left,left,0.5298460650442394,0.1998125300697211
CHE1998M,2019-05-22-16-56-09,2,5,0.6484281401382005,left,stripes-4,stripes-8,left,right,0.36195224990342467,0.2558435851415197
CHE1998M,2019-05-22-16-56-09,2,6,0.5152681594864839,right,heavy poles sphere,heavy poles sphere,right,right,0.5421976837449165,0.2238424555948768
CHE1998M,2019-05-22-16-56-09,2,7,0.5479730170244093,left,stripes-8,stripes-4,left,left,0.489099034069568,0.1997369574203276
CHE1998M,2019-05-22-16-56-09,2,8,0.66940583302929,left,stripes-2,stripes-2,right,left,0.38571067368820877,0.23198035484324464
CHE1998M,2019-05-22-16-56-09,2,9,0.6109204776234463,right,stripes-8,stripes-2,right,right,0.4239230664209117,0.26395162852827525
CHE1998M,2019-05-22-16-56-09,2,10,0.5260119233409064,left,stripes-4,heavy poles sphere,right,right,0.6482466367838242,0.24770319790491158
CHE1998M,2019-05-22-16-56-09,2,11,0.5326343540980559,left,stripes-4,stripes-4,left,right,0.5661346207014049,0.24781173640144516
CHE1998M,2019-05-22-16-56-09,2,12,0.6210274051202986,left,heavy poles sphere,stripes-8,left,left,0.3169464046857229,0.21580625287469957
CHE1998M,2019-05-22-16-56-09,2,13,0.6367663564254679,right,heavy poles sphere,stripes-2,right,right,0.5265392173844248,0.6398471877489555
CHE1998M,2019-05-22-16-56-09,2,14,0.6810818009554361,left,stripes-8,heavy poles sphere,left,left,3.172673862965894,0.16793735493865825
CHE1998M,2019-05-22-16-56-09,2,15,0.6917891321170613,right,stripes-2,heavy poles sphere,right,left,1.8260370480140864,0.2717107315340854
CHE1998M,2019-05-22-16-56-09,2,16,0.5976231108653682,right,heavy poles sphere,stripes-8,right,right,0.8457052187734462,0.2396896980794736
CHE1998M,2019-05-22-16-56-09,2,17,0.610180898746487,right,stripes-2,heavy poles sphere,left,left,0.8500529786042534,0.9598547512339337
CHE1998M,2019-05-22-16-56-09,2,18,0.6743021596611534,right,heavy poles sphere,stripes-4,right,right,1.7978599567275069,0.24783070731314183
CHE1998M,2019-05-22-16-56-09,2,19,0.6717450823533939,right,stripes-8,stripes-2,right,right,0.47148998475790904,0.279970231218158
CHE1998M,2019-05-22-16-56-09,2,20,0.5660371751863187,left,stripes-2,stripes-4,right,right,0.45827783304912373,0.26382785110263285
CHE1998M,2019-05-22-16-56-09,2,21,0.6985230648209397,left,stripes-4,stripes-4,left,left,0.5282556184220084,0.23182081258323706
CHE1998M,2019-05-22-16-56-09,2,22,0.5868547603240406,right,heavy poles sphere,heavy poles sphere,left,right,3.0356469656337595,0.24779711946916905
CHE1998M,2019-05-22-16-56-09,2,23,0.6349805716026813,left,stripes-8,stripes-4,left,left,0.9002929295411377,0.19998917725001775
CHE1998M,2019-05-22-16-56-09,2,24,0.5311285951566638,right,stripes-8,heavy poles sphere,right,right,0.611644283582109,0.24770724088602947
CHE1998M,2019-05-22-16-56-09,2,25,0.5153889571566732,right,stripes-4,stripes-8,right,right,0.6355843305243525,0.26388880681975024
CHE1998M,2019-05-22-16-56-09,2,26,0.667188209262797,right,stripes-4,stripes-2,right,right,0.6281194321541079,0.23986136928306223
CHE1998M,2019-05-22-16-56-09,2,27,0.5577338404741563,left,heavy poles sphere,stripes-2,left,left,0.5395159431855063,0.21582242479962588
CHE1998M,2019-05-22-16-56-09,2,28,0.6357607685086301,left,stripes-2,stripes-2,left,right,0.9069828195065384,0.2716933156145842
CHE1998M,2019-05-22-16-56-09,2,29,0.545618880614035,right,stripes-2,stripes-8,right,right,0.30065474526259095,0.2958504395498949
CHE1998M,2019-05-22-16-56-09,2,30,0.5834633952775959,right,stripes-8,stripes-8,right,left,1.6047839664072399,0.26385148699296224
CHE1998M,2019-05-22-16-56-09,2,31,0.6557139427294572,left,stripes-4,heavy poles sphere,left,right,0.9112848625495644,0.22386049351121073
CHE1998M,2019-05-22-16-56-09,2,32,0.6570828127128974,right,heavy poles sphere,heavy poles sphere,right,right,0.5450887263334607,0.23184040549222118
CHE1998M,2019-05-22-16-56-09,2,33,0.5127175952381233,left,heavy poles sphere,stripes-8,left,left,1.0057584492865317,0.19182453212602013
CHE1998M,2019-05-22-16-56-09,2,34,0.5789498395190942,right,stripes-4,stripes-4,right,right,1.6368612906003364,0.21585134766564806
CHE1998M,2019-05-22-16-56-09,2,35,0.5870047924377676,left,stripes-2,heavy poles sphere,right,left,1.7547319207985765,0.2078250968993416
CHE1998M,2019-05-22-16-56-09,2,36,0.5228993723336715,right,stripes-4,heavy poles sphere,right,right,0.7905832124845347,0.22385396254139778
CHE1998M,2019-05-22-16-56-09,2,37,0.54350576488917,right,stripes-4,stripes-2,right,right,0.4311662228199111,0.2719452244459717
CHE1998M,2019-05-22-16-56-09,2,38,0.5231413436053391,right,stripes-2,stripes-2,right,right,1.1574299576825524,0.22382877165819082
CHE1998M,2019-05-22-16-56-09,2,39,0.5555224336813367,left,stripes-2,stripes-4,right,right,1.4622001468535473,0.199949058436232
CHE1998M,2019-05-22-16-56-09,2,40,0.5483478013752143,right,stripes-2,stripes-8,right,right,0.3156461197177123,0.27971334640983514
CHE1998M,2019-05-22-16-56-09,2,41,0.625419868021273,right,stripes-4,stripes-8,right,right,0.25791203654603123,0.26366488785856745
CHE1998M,2019-05-22-16-56-09,2,42,0.5707087670002229,left,heavy poles sphere,stripes-2,left,right,1.1028341609521704,0.2797292073362314
CHE1998M,2019-05-22-16-56-09,2,43,0.6732750035733414,right,heavy poles sphere,stripes-4,right,right,0.42025701542775096,0.295814363717227
CHE1998M,2019-05-22-16-56-09,2,44,0.6319221944467439,left,stripes-8,heavy poles sphere,left,left,0.43843394810483005,0.23173342198856517
CHE1998M,2019-05-22-16-56-09,2,45,0.6855377664683235,left,stripes-8,stripes-4,left,left,0.47116841224965356,0.19182857510713802
CHE1998M,2019-05-22-16-56-09,2,46,0.5381080552423257,left,stripes-8,stripes-8,left,left,0.39062973786872135,0.20786148373053948
CHE1998M,2019-05-22-16-56-09,2,47,0.5672816520474842,left,stripes-8,stripes-2,left,right,0.5516672788155574,0.3437193374859362
CHE1998M,2019-05-22-16-56-09,3,0,0.6099042769448914,right,heavy poles sphere,stripes-2,right,right,0.8801983797598041,0.2478739361129101
CHE1998M,2019-05-22-16-56-09,3,1,0.6695210193741148,left,stripes-8,heavy poles sphere,left,left,0.4486207058484979,0.19184692402222936
CHE1998M,2019-05-22-16-56-09,3,2,0.5015161807494982,right,stripes-2,stripes-2,right,right,0.8581815478958106,0.23196107293256318
CHE1998M,2019-05-22-16-56-09,3,3,0.5179517348636671,right,stripes-4,stripes-2,right,right,0.6087097011957212,0.2319408580262916
CHE1998M,2019-05-22-16-56-09,3,4,0.5998534764586395,left,stripes-4,stripes-8,left,left,0.4140190063658338,0.2159474462198432
CHE1998M,2019-05-22-16-56-09,3,5,0.6646400904118481,left,stripes-4,stripes-4,left,right,0.5768376360501861,0.34384280391327593
CHE1998M,2019-05-22-16-56-09,3,6,0.6856055768048289,right,heavy poles sphere,heavy poles sphere,right,right,0.36208038130916975,0.24783630528736467
CHE1998M,2019-05-22-16-56-09,3,7,0.5652710205954796,right,stripes-2,stripes-4,right,right,0.4742902157674962,0.21584232870736741
CHE1998M,2019-05-22-16-56-09,3,8,0.5901156693787607,left,stripes-4,heavy poles sphere,left,left,0.4238002219908594,0.3038328395196004
CHE1998M,2019-05-22-16-56-09,3,9,0.587691151989771,right,heavy poles sphere,stripes-4,right,right,0.28324162504213746,0.28781703581671536
CHE1998M,2019-05-22-16-56-09,3,10,0.5288655304594517,left,stripes-2,stripes-8,left,left,0.286369648531263,0.20770660644893724
CHE1998M,2019-05-22-16-56-09,3,11,0.6061100350847781,right,stripes-2,heavy poles sphere,right,right,0.37049102629202935,0.25580657631326176
CHE1998M,2019-05-22-16-56-09,3,12,0.6266826314125273,left,stripes-8,stripes-8,left,left,0.38341985831539205,0.20774579226736023
CHE1998M,2019-05-22-16-56-09,3,13,0.6147316339260416,left,stripes-8,stripes-4,left,left,0.5662742590536709,0.21570953232367174
CHE1998M,2019-05-22-16-56-09,3,14,0.5771285388458995,right,stripes-8,stripes-2,right,right,0.34309080940170134,0.20773739530613966
CHE1998M,2019-05-22-16-56-09,3,15,0.5432817412042767,left,heavy poles sphere,stripes-8,left,left,0.2998616989414131,0.23187617032658636
CHE1998M,2019-05-22-16-56-09,3,16,0.6134439709257083,left,stripes-8,stripes-8,left,left,0.25270374370734316,0.23180712864677844
CHE1998M,2019-05-22-16-56-09,3,17,0.684879972812006,left,stripes-2,stripes-2,left,right,0.4369731878814491,0.30397247787163906
CHE1998M,2019-05-22-16-56-09,3,18,0.5542400411261218,right,stripes-8,stripes-4,right,right,0.33643948325720885,0.2878453366854501
CHE1998M,2019-05-22-16-56-09,3,19,0.5477131731260361,left,stripes-2,stripes-4,left,left,0.52068000456552,0.24797034566540788
CHE1998M,2019-05-22-16-56-09,3,20,0.577004807490876,left,heavy poles sphere,heavy poles sphere,left,left,0.5081660446176102,0.2478282193249015
CHE1998M,2019-05-22-16-56-09,3,21,0.5334497236653227,right,heavy poles sphere,stripes-2,right,right,0.40096204293718074,0.26381758815000467
CHE1998M,2019-05-22-16-56-09,3,22,0.5648333644875276,right,stripes-4,stripes-8,right,right,0.38311072574924765,2.3997818034122247
CHE1998M,2019-05-22-16-56-09,3,23,0.6227229233340577,left,stripes-4,heavy poles sphere,left,left,0.5495139248050691,0.19179778625016297
CHE1998M,2019-05-22-16-56-09,3,24,0.514587537056977,left,stripes-2,stripes-8,right,right,0.3143221988591449,0.2318612423957802
CHE1998M,2019-05-22-16-56-09,3,25,0.625390850670614,left,stripes-4,stripes-2,left,right,0.6105197127990323,0.29597235098412966
CHE1998M,2019-05-22-16-56-09,3,26,0.6070337049685134,left,stripes-8,heavy poles sphere,left,left,0.42247474613964187,0.19983336697305276
CHE1998M,2019-05-22-16-56-09,3,27,0.677816713625078,left,heavy poles sphere,stripes-4,left,left,0.3546198369188005,0.2078285178833994
CHE1998M,2019-05-22-16-56-09,3,28,0.5959200536064537,right,stripes-8,stripes-2,right,left,0.4515388053114293,0.3118345213995326
CHE1998M,2019-05-22-16-56-09,3,29,0.6724152833582842,left,heavy poles sphere,stripes-8,left,left,0.3302213781030332,0.22383499162947373
CHE1998M,2019-05-22-16-56-09,3,30,0.559052647169986,left,stripes-2,heavy poles sphere,right,left,0.542640234692044,0.3277081987616839
CHE1998M,2019-05-22-16-56-09,3,31,0.6895349861889419,right,stripes-4,stripes-4,right,right,0.735116308795341,0.2638381140548063
CHE1998M,2019-05-22-16-56-09,3,32,0.5469155245659201,right,heavy poles sphere,stripes-4,right,right,0.48184468172257766,0.2558233702354755
CHE1998M,2019-05-22-16-56-09,3,33,0.5196991178587346,left,stripes-2,stripes-4,left,left,0.5265221124639083,0.2558554030867981
CHE1998M,2019-05-22-16-56-09,3,34,0.6498822322518103,right,stripes-2,stripes-2,right,right,0.8046316393138113,0.22382690566701058
CHE1998M,2019-05-22-16-56-09,3,35,0.5882615705973684,right,stripes-4,stripes-2,right,right,0.4430398367383077,0.2318500464475619
CHE1998M,2019-05-22-16-56-09,3,36,0.5196726016134801,left,heavy poles sphere,heavy poles sphere,left,left,0.6372945115906532,0.27996867622528043
CHE1998M,2019-05-22-16-56-09,3,37,0.5922908580232521,left,stripes-2,stripes-8,left,left,0.35204756785128666,0.2397466108154731
CHE1998M,2019-05-22-16-56-09,3,38,0.679530998532272,left,stripes-8,stripes-4,left,right,0.5480441456231802,0.3518398208150302
CHE1998M,2019-05-22-16-56-09,3,39,0.673602473632234,right,stripes-4,stripes-8,right,right,0.38794675331496364,0.3198268733231089
CHE1998M,2019-05-22-16-56-09,3,40,0.6620959523693173,left,stripes-8,stripes-2,left,left,0.7959917883940761,0.35985580862893585
CHE1998M,2019-05-22-16-56-09,3,41,0.5055783357065184,left,stripes-8,heavy poles sphere,left,left,0.4738414448495405,0.2878571546307285
CHE1998M,2019-05-22-16-56-09,3,42,0.6606462740853158,left,stripes-2,heavy poles sphere,left,left,0.6492057563343678,0.22388257440866255
CHE1998M,2019-05-22-16-56-09,3,43,0.6464324483933928,left,stripes-4,heavy poles sphere,left,left,0.6284913864283226,0.24783972627142248
CHE1998M,2019-05-22-16-56-09,3,44,0.5629435808524762,left,heavy poles sphere,stripes-2,left,left,0.45120230487259505,0.2639388775876341
CHE1998M,2019-05-22-16-56-09,3,45,0.5497834282754777,left,heavy poles sphere,stripes-8,left,left,0.30547708889162095,0.23972079793520606
CHE1998M,2019-05-22-16-56-09,3,46,0.63710603656977,left,stripes-8,stripes-8,left,left,0.633511525140193,0.3438309859682249
CHE1998M,2019-05-22-16-56-09,3,47,0.5001072924738796,left,stripes-4,stripes-4,left,right,0.5815327812695159,0.34383751693758313
CHE1998M,2019-05-22-16-56-09,4,0,0.6630128334482579,left,stripes-2,heavy poles sphere,left,right,0.4875036114708564,0.21582677877950118
CHE1998M,2019-05-22-16-56-09,4,1,0.633829299371881,right,stripes-4,stripes-4,right,right,0.42504203922999295,0.2796897105192784
CHE1998M,2019-05-22-16-56-09,4,2,0.5365321420331011,left,stripes-8,stripes-2,left,left,0.4464726388132476,0.23974847680665334
CHE1998M,2019-05-22-16-56-09,4,3,0.6807301943327948,right,stripes-8,heavy poles sphere,right,right,0.5038182847868029,0.2558103082958496
CHE1998M,2019-05-22-16-56-09,4,4,0.573221029875499,left,stripes-4,stripes-2,left,left,0.6252115956435773,0.24783101831189924
CHE1998M,2019-05-22-16-56-09,4,5,0.5526435326011874,left,heavy poles sphere,stripes-4,left,left,0.4646022997098953,0.23182392256876483
CHE1998M,2019-05-22-16-56-09,4,6,0.5895934821659989,right,stripes-4,stripes-8,right,right,0.23603639802718135,0.33583521306059083
CHE1998M,2019-05-22-16-56-09,4,7,0.5436706243345423,right,stripes-8,stripes-8,right,right,0.3029999853829395,0.2878462696810402
CHE1998M,2019-05-22-16-56-09,4,8,0.5787200182559776,right,stripes-2,stripes-4,right,right,0.5272013333128598,0.28783911671439455
CHE1998M,2019-05-22-16-56-09,4,9,0.5783809566008884,left,stripes-2,stripes-2,left,right,0.6946948933102703,0.3437582123056018
CHE1998M,2019-05-22-16-56-09,4,10,0.5249545209183696,right,stripes-4,heavy poles sphere,right,right,0.6004952963023698,1.2958336456279085
CHE1998M,2019-05-22-16-56-09,4,11,0.6323964408885021,left,heavy poles sphere,heavy poles sphere,left,left,0.5476099916372732,0.3679688279923994
CHE1998M,2019-05-22-16-56-09,4,12,0.5384485931841725,right,heavy poles sphere,stripes-2,right,left,0.48965727648010215,0.41581844401844137
CHE1998M,2019-05-22-16-56-09,4,13,0.6624078477505434,right,heavy poles sphere,stripes-8,right,right,0.5228694344086762,0.3118441623551007
CHE1998M,2019-05-22-16-56-09,4,14,0.6784066569443549,right,stripes-2,stripes-8,right,right,0.7014553799485839,0.2959661310130741
CHE1998M,2019-05-22-16-56-09,4,15,0.5906255678569375,left,stripes-8,stripes-4,left,left,0.5408068981967062,0.3036869811960514
CHE1998M,2019-05-22-16-56-09,4,16,0.6403135165495841,right,heavy poles sphere,stripes-2,right,left,0.43334414571654634,0.36781830469067245
CHE1998M,2019-05-22-16-56-09,4,17,0.6473554739597991,right,stripes-4,heavy poles sphere,right,right,0.5106661620195609,0.32801111135654537
CHE1998M,2019-05-22-16-56-09,4,18,0.6059495741583235,left,stripes-2,heavy poles sphere,right,left,0.39734481871732896,0.9438411245209863
CHE1998M,2019-05-22-16-56-09,4,19,0.6995095208409328,right,stripes-8,stripes-2,right,right,0.6661729046238634,0.3278839129463904
CHE1998M,2019-05-22-16-56-09,4,20,0.5983956301096535,left,heavy poles sphere,stripes-8,left,left,0.4347619881391438,0.3359605454791108
CHE1998M,2019-05-22-16-56-09,4,21,0.5729572145469647,right,stripes-8,stripes-8,right,right,0.8281897800275146,0.3038322175225403
CHE1998M,2019-05-22-16-56-09,4,22,0.51672160960593,left,stripes-2,stripes-8,right,left,0.48136325595578455,0.3998415151352219
CHE1998M,2019-05-22-16-56-09,4,23,0.5395823746421576,left,heavy poles sphere,heavy poles sphere,left,left,2.586145200872352,0.2878649295944342
CHE1998M,2019-05-22-16-56-09,4,24,0.5407450665326352,right,stripes-2,stripes-4,right,left,0.43106701427996086,0.4398430825679043
CHE1998M,2019-05-22-16-56-09,4,25,0.5433485310216177,left,stripes-8,stripes-4,left,left,0.4618048676873059,0.31196731778368303
CHE1998M,2019-05-22-16-56-09,4,26,0.5142182252335231,left,stripes-8,heavy poles sphere,left,left,0.39472994284778906,0.32771224174302915
CHE1998M,2019-05-22-16-56-09,4,27,0.6510915821965162,right,heavy poles sphere,stripes-4,right,right,0.5721110799765938,0.38385432329982905
CHE1998M,2019-05-22-16-56-09,4,28,0.5441920357441299,left,stripes-4,stripes-2,left,left,0.3992764307567995,0.3038263085497874
CHE1998M,2019-05-22-16-56-09,4,29,0.5120055604703265,left,stripes-4,stripes-8,left,left,0.5421389050175094,0.2719362054881458
CHE1998M,2019-05-22-16-56-09,4,30,0.6722445440516706,left,stripes-2,stripes-2,left,left,0.6654442350043155,0.32782762220767836
CHE1998M,2019-05-22-16-56-09,4,31,0.5077085658511536,right,stripes-4,stripes-4,right,right,0.5887255559021014,0.3278027423232288
CHE1998M,2019-05-22-16-56-09,4,32,0.6116519934299359,left,stripes-4,heavy poles sphere,left,left,0.45598390769055186,0.33581562015137933
CHE1998M,2019-05-22-16-56-09,4,33,0.66526554871871,right,stripes-2,stripes-8,right,right,0.4286664164164904,0.3598132018266824
CHE1998M,2019-05-22-16-56-09,4,34,0.6132143615138408,right,stripes-2,stripes-2,right,right,0.6273422467593264,0.2878608866133163
CHE1998M,2019-05-22-16-56-09,4,35,0.6350638934004161,right,stripes-4,stripes-2,right,right,0.39661490510343356,0.31981878736064573
CHE1998M,2019-05-22-16-56-09,4,36,0.5763729112956355,left,heavy poles sphere,heavy poles sphere,left,left,0.4507526009585945,0.3120009056276558
CHE1998M,2019-05-22-16-56-09,4,37,0.5873011623107104,left,stripes-8,stripes-4,left,left,0.47618108699612094,0.2719707263277087
CHE1998M,2019-05-22-16-56-09,4,38,0.6372928279693644,right,heavy poles sphere,stripes-2,right,left,0.3889232887850085,0.45598079770525146
CHE1998M,2019-05-22-16-56-09,4,39,0.5522607427022426,left,stripes-8,stripes-8,left,left,0.6844226109635656,0.31987601109517527
CHE1998M,2019-05-22-16-56-09,4,40,0.6059050269745945,right,stripes-4,stripes-8,right,right,0.44277548796458177,0.31200059462935315
CHE1998M,2019-05-22-16-56-09,4,41,0.663144438284432,left,stripes-4,stripes-4,left,right,0.7696150677556943,0.3357559084283821
CHE1998M,2019-05-22-16-56-09,4,42,0.5726688310434919,left,heavy poles sphere,stripes-8,left,left,0.5419778077648516,0.27183730794672556
CHE1998M,2019-05-22-16-56-09,4,43,0.543801901850637,right,stripes-2,heavy poles sphere,right,right,0.4794456388517574,0.30382568655272735
CHE1998M,2019-05-22-16-56-09,4,44,0.5304296428572097,right,heavy poles sphere,stripes-4,right,right,0.5708692627376877,0.30398709480391517
CHE1998M,2019-05-22-16-56-09,4,45,0.5988858644535806,left,stripes-8,stripes-2,left,right,0.4787113712579867,0.28787052756865705
CHE1998M,2019-05-22-16-56-09,4,46,0.5897710620569194,left,stripes-8,heavy poles sphere,left,left,0.42489680290373144,0.27983961182394523
CHE1998M,2019-05-22-16-56-09,4,47,0.6847609677913635,right,stripes-2,stripes-4,left,right,0.6082802121879922,0.42383007785224436
CHE1998M,2019-05-22-16-56-09,5,0,0.5241497094442008,right,stripes-2,stripes-8,right,right,0.5823612814258468,0.39176021762432356
CHE1998M,2019-05-22-16-56-09,5,1,0.553224270815141,right,stripes-2,heavy poles sphere,right,right,0.6736583288991369,0.31985704018325123
CHE1998M,2019-05-22-16-56-09,5,2,0.6552423994114698,left,stripes-2,stripes-4,right,left,0.5027167278972229,0.2958302246436233
CHE1998M,2019-05-22-16-56-09,5,3,0.6268352097242667,left,stripes-8,stripes-4,left,right,0.41271778840223305,0.25582150424384054
CHE1998M,2019-05-22-16-56-09,5,4,0.599358474094676,left,heavy poles sphere,heavy poles sphere,left,left,0.36359183429726727,0.28782387778505836
CHE1998M,2019-05-22-16-56-09,5,5,0.6802511114693465,right,stripes-8,heavy poles sphere,right,right,0.39106700184038345,0.33581841913837707
CHE1998M,2019-05-22-16-56-09,5,6,0.6214033137929861,right,stripes-4,heavy poles sphere,right,right,0.40193857840677083,0.3117107439738902
CHE1998M,2019-05-22-16-56-09,5,7,0.5262089912983953,right,stripes-4,stripes-8,right,right,0.4153320422747129,0.26395162852827525
CHE1998M,2019-05-22-16-56-09,5,8,0.5428349606330192,right,stripes-2,stripes-2,right,right,0.421511583607753,0.2878369397244569
CHE1998M,2019-05-22-16-56-09,5,9,0.643797450568871,right,stripes-8,stripes-8,right,right,0.2942030801918918,0.31185287031439657
CHE1998M,2019-05-22-16-56-09,5,10,0.6430617427156977,left,stripes-4,stripes-4,right,right,0.3711749121196135,0.2636947437199524
CHE1998M,2019-05-22-16-56-09,5,11,0.5249548833544464,left,stripes-4,stripes-2,left,right,0.8119254884777547,0.3118475833391585
CHE1998M,2019-05-22-16-56-09,5,12,0.5188641924453398,right,heavy poles sphere,stripes-4,right,right,1.80243878848637,0.2238262836699505
CHE1998M,2019-05-22-16-56-09,5,13,0.6358930295534204,right,heavy poles sphere,stripes-8,right,right,0.32747370584957025,0.30383594950512816
CHE1998M,2019-05-22-16-56-09,5,14,0.6180221619333361,right,stripes-8,stripes-2,right,right,0.4210833385943715,0.335753109441157
CHE1998M,2019-05-22-16-56-09,5,15,0.507903633915261,right,heavy poles sphere,stripes-2,right,right,0.5224380794097669,0.2798315258614821
CHE1998M,2019-05-22-16-56-09,5,16,0.6168962542850662,right,stripes-4,stripes-4,right,right,0.5685818683487014,0.2396956070519991
CHE1998M,2019-05-22-16-56-09,5,17,0.6577153505220567,left,heavy poles sphere,stripes-4,left,left,0.6057779177963312,0.3038362605036582
CHE1998M,2019-05-22-16-56-09,5,18,0.6798867833259951,right,stripes-2,stripes-2,left,right,0.5411334466818971,0.2717010905785173
CHE1998M,2019-05-22-16-56-09,5,19,0.69887367997214,left,stripes-8,stripes-8,left,left,0.2790720673847318,0.27967073960735434
CHE1998M,2019-05-22-16-56-09,5,20,0.616652581649292,left,stripes-2,stripes-8,left,left,0.303228569322755,0.27170233457286486
CHE1998M,2019-05-22-16-56-09,5,21,0.5976880677885227,right,stripes-2,heavy poles sphere,right,left,0.992680959953077,0.35996528012105955
CHE1998M,2019-05-22-16-56-09,5,22,0.5214843380632151,right,stripes-4,stripes-8,right,right,0.420508302261851,1.1838088553108719
CHE1998M,2019-05-22-16-56-09,5,23,0.6258425078791274,right,heavy poles sphere,heavy poles sphere,right,right,0.5237386753760802,0.35995346217600854
CHE1998M,2019-05-22-16-56-09,5,24,0.5561788815656831,left,stripes-2,stripes-4,left,left,0.6092216048211867,0.34372400246434154
CHE1998M,2019-05-22-16-56-09,5,25,0.5313584610111665,right,stripes-4,stripes-2,right,right,0.6290194619787144,0.30385367642270467
CHE1998M,2019-05-22-16-56-09,5,26,0.6034549492074027,left,stripes-4,heavy poles sphere,left,left,0.5436882998299097,0.3197668506015816
CHE1998M,2019-05-22-16-56-09,5,27,0.6388763432410567,right,stripes-8,stripes-2,right,right,0.4582579291413822,0.311934662935073
CHE1998M,2019-05-22-16-56-09,5,28,0.6371093876589248,right,stripes-8,heavy poles sphere,right,right,0.4344631185256276,0.29570769121210105
CHE1998M,2019-05-22-16-56-09,5,29,0.6211984408665387,right,stripes-8,stripes-4,right,right,0.4676976683506382,0.27988066363354847
CHE1998M,2019-05-22-16-56-09,5,30,0.5841093147112097,left,heavy poles sphere,stripes-8,left,left,0.3912812798462255,0.23974132384000768
CHE1998M,2019-05-22-16-56-09,5,31,0.609423880436091,right,heavy poles sphere,stripes-2,right,right,0.8140166427767781,0.22385800552274304
CHE1998M,2019-05-22-16-56-09,5,32,0.5200483240253094,right,heavy poles sphere,stripes-8,right,right,0.5360999350323254,0.27168958363199636
CHE1998M,2019-05-22-16-56-09,5,33,0.5514351025389428,left,stripes-8,heavy poles sphere,left,left,0.5460665057973983,0.2558426521459296
CHE1998M,2019-05-22-16-56-09,5,34,0.6694561822911416,right,stripes-2,stripes-2,left,left,0.5419974006740631,0.2718354419555453
CHE1998M,2019-05-22-16-56-09,5,35,0.5341100520005787,left,stripes-2,stripes-4,left,left,0.4554262872770778,0.2638250521158625
CHE1998M,2019-05-22-16-56-09,5,36,0.5248530013123596,left,stripes-8,stripes-2,left,left,0.5729056812906492,0.2638468220143295
CHE1998M,2019-05-22-16-56-09,5,37,0.6106976819284874,right,stripes-4,stripes-4,right,right,0.5063750039266779,0.3117160309493556
CHE1998M,2019-05-22-16-56-09,5,38,0.5126054930860509,left,heavy poles sphere,stripes-4,left,left,0.5418359924228753,0.2878683505787194
CHE1998M,2019-05-22-16-56-09,5,39,0.5980006135284395,left,stripes-4,heavy poles sphere,left,left,0.4530937980980525,0.2558277242155782
CHE1998M,2019-05-22-16-56-09,5,40,0.5189589486827318,left,stripes-2,heavy poles sphere,left,left,0.28462525762370205,0.2798374348340076
CHE1998M,2019-05-22-16-56-09,5,41,0.5581394406259335,left,heavy poles sphere,heavy poles sphere,left,left,0.6176272738271109,0.2959474710996801
CHE1998M,2019-05-22-16-56-09,5,42,0.6887584643114858,right,heavy poles sphere,stripes-2,left,left,0.28164402545326084,0.2717576923159868
CHE1998M,2019-05-22-16-56-09,5,43,0.6470268611671508,left,stripes-4,stripes-8,left,right,0.4010637394653713,0.31179378058823204
CHE1998M,2019-05-22-16-56-09,5,44,0.5694881472776689,right,stripes-8,stripes-8,right,right,0.5012668526228481,0.2957462550330092
CHE1998M,2019-05-22-16-56-09,5,45,0.5773850467386255,right,stripes-8,stripes-4,right,right,0.7652222131341659,0.35183857682068265
CHE1998M,2019-05-22-16-56-09,5,46,0.5962024291331289,right,stripes-2,stripes-8,right,right,0.7437937905406216,0.3676985702463753
CHE1998M,2019-05-22-16-56-09,5,47,0.6815306837410646,right,stripes-4,stripes-2,right,right,0.7027009291705326,0.31194772487424416
CHE1998M,2019-05-22-16-56-09,6,0,0.6060116681679802,right,stripes-2,heavy poles sphere,right,right,0.3997811814151646,0.44783574548955585
CHE1998M,2019-05-22-16-56-09,6,1,0.5398091285531756,left,stripes-2,stripes-2,right,left,0.23918681341228876,0.3278891999220832
CHE1998M,2019-05-22-16-56-09,6,2,0.5728903597035038,right,heavy poles sphere,stripes-8,right,right,0.35408834038389614,0.3278220242336829
CHE1998M,2019-05-22-16-56-09,6,3,0.5211282981389302,left,stripes-8,stripes-4,left,left,0.368965267369731,0.27179594513881966
CHE1998M,2019-05-22-16-56-09,6,4,0.6130109842072179,right,heavy poles sphere,stripes-4,right,right,0.4384924158339345,0.3198209643505834
CHE1998M,2019-05-22-16-56-09,6,5,0.5198969569222066,left,stripes-8,stripes-8,left,right,0.36257611300970893,0.23983026942732977
CHE1998M,2019-05-22-16-56-09,6,6,0.5958919845666896,right,stripes-8,heavy poles sphere,right,right,0.31562870379821106,0.28786866157724944
CHE1998M,2019-05-22-16-56-09,6,7,0.6534176246497492,left,heavy poles sphere,heavy poles sphere,left,left,0.37902109472133816,0.27982095191055123
CHE1998M,2019-05-22-16-56-09,6,8,0.6389131970423702,left,stripes-4,stripes-4,left,left,0.43046523207158316,0.2878462696812676
CHE1998M,2019-05-22-16-56-09,6,9,0.5747954849599565,left,stripes-2,stripes-8,left,left,0.2980420463832161,0.23973230488172703
CHE1998M,2019-05-22-16-56-09,6,10,0.5022590070848417,right,heavy poles sphere,stripes-2,right,right,0.6329399097917303,0.23994658288802384
CHE1998M,2019-05-22-16-56-09,6,11,0.6059625908934488,right,stripes-2,stripes-4,right,right,0.5010525746174608,0.24770537489484923
CHE1998M,2019-05-22-16-56-09,6,12,0.6988247162316581,left,stripes-4,heavy poles sphere,left,left,0.4035865597616066,0.26384091304225876
CHE1998M,2019-05-22-16-56-09,6,13,0.5736631053081155,left,stripes-4,stripes-8,left,left,0.39309346843947424,0.26386081694954555
CHE1998M,2019-05-22-16-56-09,6,14,0.6113655370308607,right,stripes-4,stripes-2,right,right,0.3659041085707031,0.2558420301488695
CHE1998M,2019-05-22-16-56-09,6,15,0.6850537505027157,right,stripes-8,stripes-2,right,left,0.2728468092636831,2.135702976474022
CHE1998M,2019-05-22-16-56-09,6,16,0.6889823742523675,left,heavy poles sphere,stripes-4,left,left,0.9720878794846612,0.23172129304475675
CHE1998M,2019-05-22-16-56-09,6,17,0.632736141688055,left,heavy poles sphere,stripes-8,left,left,0.5063510570375911,0.2958336456276811
CHE1998M,2019-05-22-16-56-09,6,18,0.5642408944375752,right,stripes-2,heavy poles sphere,right,right,0.33977743077230116,0.3678276346477105
CHE1998M,2019-05-22-16-56-09,6,19,0.5012897016290806,right,heavy poles sphere,stripes-2,right,right,0.3401021132663118,0.3198452222377455
CHE1998M,2019-05-22-16-56-09,6,20,0.5128966338302446,left,stripes-2,stripes-2,right,right,0.5322158740505074,0.255861312059551
CHE1998M,2019-05-22-16-56-09,6,21,0.6355245400586917,right,stripes-4,stripes-2,right,right,0.5543443543965623,0.27171881749609383
CHE1998M,2019-05-22-16-56-09,6,22,0.6162948674157052,left,stripes-8,stripes-4,left,left,0.6636712322288076,0.23171973805210655
CHE1998M,2019-05-22-16-56-09,6,23,0.5377563708020058,left,stripes-2,stripes-4,left,right,0.6296933958524278,0.295744700040359
CHE1998M,2019-05-22-16-56-09,6,24,0.5987818870832984,right,stripes-4,stripes-4,right,right,0.5994749100359513,0.263829095096753
CHE1998M,2019-05-22-16-56-09,6,25,0.5011545216471384,left,heavy poles sphere,heavy poles sphere,left,left,0.4902459967483992,0.22385023055858255
CHE1998M,2019-05-22-16-56-09,6,26,0.5346256482081629,right,stripes-8,stripes-2,right,right,0.48776049627940665,0.3039796308385121
CHE1998M,2019-05-22-16-56-09,6,27,0.6953700902176381,right,stripes-4,stripes-8,right,right,0.26703860020779757,0.2959431171198048
CHE1998M,2019-05-22-16-56-09,6,28,0.515631644779585,left,stripes-4,heavy poles sphere,left,left,0.7287069395283652,0.255808442304442
CHE1998M,2019-05-22-16-56-09,6,29,0.5632870332193145,left,stripes-8,stripes-8,left,left,0.3294230448068447,0.255836121176344
CHE1998M,2019-05-22-16-56-09,6,30,0.5291878027275516,left,stripes-8,heavy poles sphere,left,left,0.41356930245228796,0.2878717715630046
CHE1998M,2019-05-22-16-56-09,6,31,0.6373203457703769,left,stripes-2,stripes-8,left,left,0.5829767475711378,0.2478549652005313
CHE1998M,2019-05-22-16-56-09,6,32,0.645692224769456,right,heavy poles sphere,stripes-2,right,right,0.6124581668063911,0.3198763220939327
CHE1998M,2019-05-22-16-56-09,6,33,0.5085351158185246,right,stripes-4,heavy poles sphere,right,right,0.48245734888041625,0.3037227460304166
CHE1998M,2019-05-22-16-56-09,6,34,0.5390937064758999,right,stripes-4,stripes-8,right,right,0.6445585048932116,0.28782947575882645
CHE1998M,2019-05-22-16-56-09,6,35,0.5504382707293527,left,stripes-4,stripes-2,left,right,0.6963938784288075,0.28784098270580216
CHE1998M,2019-05-22-16-56-09,6,36,0.6044717122004969,right,heavy poles sphere,heavy poles sphere,right,right,0.5943188649548574,0.3198480212249706
CHE1998M,2019-05-22-16-56-09,6,37,0.6890518789952977,right,stripes-8,heavy poles sphere,right,right,0.8582163797345856,2.1117862544233503
CHE1998M,2019-05-22-16-56-09,6,38,0.6447885921671495,right,stripes-2,stripes-2,right,right,0.41508884140284863,0.28783600672841203
CHE1998M,2019-05-22-16-56-09,6,39,0.5942935198305207,left,stripes-8,stripes-2,left,left,0.6985002716573945,0.2399730177648962
CHE1998M,2019-05-22-16-56-09,6,40,0.6805335015953176,right,stripes-2,stripes-4,right,right,0.41652441074347735,0.31168493109362316
CHE1998M,2019-05-22-16-56-09,6,41,0.6860218171454812,right,stripes-8,stripes-4,right,right,0.39107788678984434,0.2798386788285825
CHE1998M,2019-05-22-16-56-09,6,42,0.6012457021066113,right,stripes-4,stripes-4,right,right,0.554530953530957,0.27986822369121
CHE1998M,2019-05-22-16-56-09,6,43,0.5281171318250913,left,stripes-2,stripes-8,right,right,0.2192626908404236,0.29582804765368564
CHE1998M,2019-05-22-16-56-09,6,44,0.5768245033805742,right,stripes-2,heavy poles sphere,right,right,0.36025668576940006,0.319841490255385
CHE1998M,2019-05-22-16-56-09,6,45,0.5820342729622289,right,stripes-8,stripes-8,right,right,0.38920163249395046,0.31170670099254494
CHE1998M,2019-05-22-16-56-09,6,46,0.5543864326077551,left,heavy poles sphere,stripes-4,left,right,0.4273599114771969,0.2957366140776685
CHE1998M,2019-05-22-16-56-09,6,47,0.5852357105138534,left,heavy poles sphere,stripes-8,left,right,0.5273291537200748,0.30397403286451663
CHE1998M,2019-05-22-16-56-09,7,0,0.6083038963986688,right,heavy poles sphere,stripes-2,right,right,0.4408370339569956,0.2637239775845046
CHE1998M,2019-05-22-16-56-09,7,1,0.615869386123144,left,stripes-4,stripes-8,left,left,0.43483040782166427,0.21581496083445018
CHE1998M,2019-05-22-16-56-09,7,2,0.6377173210928712,right,stripes-2,heavy poles sphere,right,right,0.24764721816427482,0.27183170997295747
CHE1998M,2019-05-22-16-56-09,7,3,0.5766416211428411,right,heavy poles sphere,stripes-4,right,left,0.3726278973790613,0.2878248107804211
CHE1998M,2019-05-22-16-56-09,7,4,0.5679341891853664,right,stripes-8,stripes-8,right,right,0.2741408742604108,0.2719402484690363
CHE1998M,2019-05-22-16-56-09,7,5,0.5652139152625113,left,heavy poles sphere,heavy poles sphere,left,right,0.6877471855409567,0.2158311327593765
CHE1998M,2019-05-22-16-56-09,7,6,0.6141548254874677,right,stripes-4,stripes-2,right,right,0.46573246846719485,0.25582026024994775
CHE1998M,2019-05-22-16-56-09,7,7,0.5088747941858927,right,stripes-4,stripes-4,right,right,0.5913311018152854,0.2558031553289766
CHE1998M,2019-05-22-16-56-09,7,8,0.5865684120954605,left,stripes-2,stripes-8,right,left,2.029301351070899,0.2396912530721238
CHE1998M,2019-05-22-16-56-09,7,9,0.6573917586140356,left,stripes-2,stripes-4,left,right,0.4459486062442011,0.2638365590619287
CHE1998M,2019-05-22-16-56-09,7,10,0.517779123621668,left,heavy poles sphere,stripes-8,left,left,0.42099003902694676,0.2477044418992591
CHE1998M,2019-05-22-16-56-09,7,11,0.6005197953365458,right,stripes-8,stripes-2,right,right,0.3843621839437219,0.2638875628254027
CHE1998M,2019-05-22-16-56-09,7,12,0.6812657395163587,left,stripes-2,stripes-2,left,right,0.39454987468297986,0.23168024123515352
CHE1998M,2019-05-22-16-56-09,7,13,0.6283585730755902,right,stripes-8,heavy poles sphere,left,right,1.5206709856074667,0.1996853316600209
CHE1998M,2019-05-22-16-56-09,7,14,0.5256185603568749,right,stripes-4,heavy poles sphere,right,left,0.990706741111353,0.31982594032751877
CHE1998M,2019-05-22-16-56-09,7,15,0.6374625451747159,right,stripes-8,stripes-4,right,right,0.4076289190093121,0.2797282743404139
CHE1998M,2019-05-22-16-56-09,7,16,0.5954185655784405,right,stripes-2,stripes-4,right,right,0.4909373465416138,0.29586878846475884
CHE1998M,2019-05-22-16-56-09,7,17,0.6855547857062627,right,stripes-4,stripes-8,right,right,0.4629201085135719,0.3119598538178252
CHE1998M,2019-05-22-16-56-09,7,18,0.6938176405727636,left,stripes-4,stripes-2,left,left,0.5157217545670392,0.2156989583727409
CHE1998M,2019-05-22-16-56-09,7,19,0.6957628063343102,right,stripes-2,heavy poles sphere,right,right,0.4349268173746168,0.2798352578442973
CHE1998M,2019-05-22-16-56-09,7,20,0.5126398479150545,right,heavy poles sphere,heavy poles sphere,right,right,0.5398586635956235,0.26385428597995997
CHE1998M,2019-05-22-16-56-09,7,21,0.5305021498671167,right,stripes-8,stripes-4,right,right,0.4940700350093721,0.2717284584518893
CHE1998M,2019-05-22-16-56-09,7,22,0.5169958395201901,right,stripes-8,heavy poles sphere,right,right,0.5787176223288952,0.3198741451042224
CHE1998M,2019-05-22-16-56-09,7,23,0.5825489887126718,left,stripes-2,stripes-2,left,right,0.566684155151961,0.215852902658753
CHE1998M,2019-05-22-16-56-09,7,24,0.6078260920408044,left,heavy poles sphere,stripes-4,left,left,0.3515739170488814,0.2238604935114381
CHE1998M,2019-05-22-16-56-09,7,25,0.6487526551332823,right,heavy poles sphere,stripes-2,left,right,0.4630040781239586,0.2799353993796103
CHE1998M,2019-05-22-16-56-09,7,26,0.5564533556656954,right,stripes-4,stripes-4,right,right,0.5865728238886732,0.295707069215041
CHE1998M,2019-05-22-16-56-09,7,27,0.5280544126270018,left,stripes-8,stripes-8,left,left,0.5052513661389639,0.2558093753000321
CHE1998M,2019-05-22-16-56-09,7,28,0.6202611521737953,right,heavy poles sphere,stripes-8,right,right,0.37852505202226894,0.28783351874062646
CHE1998M,2019-05-22-16-56-09,7,29,0.6220644964113782,right,stripes-2,stripes-8,right,right,0.5180396268137883,0.2798601377285195
CHE1998M,2019-05-22-16-56-09,7,30,0.6858140478967623,left,stripes-8,stripes-2,right,right,0.569359053743483,0.29579041682791285
CHE1998M,2019-05-22-16-56-09,7,31,0.501124882602733,right,stripes-4,heavy poles sphere,right,right,0.5068256408358138,0.31172193992188113
CHE1998M,2019-05-22-16-56-09,7,32,0.518085535923025,right,stripes-2,heavy poles sphere,right,right,0.317471992247647,0.2719875202496951
CHE1998M,2019-05-22-16-56-09,7,33,0.669437517922425,left,stripes-4,heavy poles sphere,left,left,0.24380296499793985,0.23970027203040445
CHE1998M,2019-05-22-16-56-09,7,34,0.6804591023702276,right,heavy poles sphere,stripes-8,right,right,0.2459277071411634,0.29598199193969776
CHE1998M,2019-05-22-16-56-09,7,35,0.6443786932751927,right,stripes-2,stripes-8,right,right,0.1976094162901063,0.295717021168457
CHE1998M,2019-05-22-16-56-09,7,36,0.5724300090002434,right,stripes-8,heavy poles sphere,right,right,0.1871471138247216,0.2718341979611978
CHE1998M,2019-05-22-16-56-09,7,37,0.6887682321066293,left,stripes-8,stripes-4,left,left,0.5007278921234501,0.2319750678680066
CHE1998M,2019-05-22-16-56-09,7,38,0.531843982729362,left,stripes-8,stripes-2,left,left,0.3856522059591043,0.19971301053146817
CHE1998M,2019-05-22-16-56-09,7,39,0.5400458520335272,left,heavy poles sphere,stripes-4,left,left,0.49326921372403376,0.23173528797997278
CHE1998M,2019-05-22-16-56-09,7,40,0.5937539081325566,right,stripes-2,stripes-4,right,left,0.4953948888633022,0.39973639762274615
CHE1998M,2019-05-22-16-56-09,7,41,0.6382706259429229,left,stripes-4,stripes-2,left,left,0.4652034599212129,0.23184973544903187
CHE1998M,2019-05-22-16-56-09,7,42,0.6449898635453646,right,heavy poles sphere,heavy poles sphere,left,left,2.1572511335120907,0.34385586585267447
CHE1998M,2019-05-22-16-56-09,7,43,0.6933039927392829,left,stripes-4,stripes-8,left,left,0.6831624448091134,0.26398117339113014
CHE1998M,2019-05-22-16-56-09,7,44,0.5580889886400207,left,stripes-8,stripes-8,left,left,0.4298018721488006,0.3118332774056398
CHE1998M,2019-05-22-16-56-09,7,45,0.5203150697405481,right,stripes-4,stripes-4,right,right,0.33059830835418325,0.32781642625968743
CHE1998M,2019-05-22-16-56-09,7,46,0.6723186967650586,left,stripes-2,stripes-2,right,left,0.3647434619551859,0.3998337401712888
CHE1998M,2019-05-22-16-56-09,7,47,0.6689327273165754,left,heavy poles sphere,stripes-2,left,left,0.41139791052501096,0.2718460159062488
CHE1998M,2019-05-22-16-56-09,8,0,0.5350690753359275,left,stripes-2,stripes-8,left,right,0.38293190157901336,0.22383281463999083
CHE1998M,2019-05-22-16-56-09,8,1,0.6407864760171573,left,stripes-4,stripes-4,left,right,0.35644975242939836,0.2318413384878113
CHE1998M,2019-05-22-16-56-09,8,2,0.5824261840555851,right,stripes-4,heavy poles sphere,right,right,0.4061451448924345,0.27973573830604437
CHE1998M,2019-05-22-16-56-09,8,3,0.5300930450650593,left,heavy poles sphere,heavy poles sphere,left,left,0.24693472046965326,0.26397495342052935
CHE1998M,2019-05-22-16-56-09,8,4,0.6725928721541675,right,stripes-8,stripes-8,right,right,0.2871804217702447,0.25581932725435763
CHE1998M,2019-05-22-16-56-09,8,5,0.651685301540986,left,stripes-4,stripes-2,left,left,0.3508160135647813,0.20772962034197917
CHE1998M,2019-05-22-16-56-09,8,6,0.5626021244597328,left,stripes-8,heavy poles sphere,left,left,0.30633979888989415,0.2479392458099028
CHE1998M,2019-05-22-16-56-09,8,7,0.5762476203553806,left,stripes-2,heavy poles sphere,left,left,0.3259650518480157,0.22380855675191924
CHE1998M,2019-05-22-16-56-09,8,8,0.5369393269299381,right,heavy poles sphere,stripes-4,left,left,0.3230640573060555,0.23169174818212923
CHE1998M,2019-05-22-16-56-09,8,9,0.598833325069922,right,stripes-8,stripes-2,right,left,0.33983185552006034,0.3198312273029842
CHE1998M,2019-05-22-16-56-09,8,10,0.6985994368290636,right,stripes-2,stripes-2,right,right,0.39667772681195856,0.26371122664340874
CHE1998M,2019-05-22-16-56-09,8,11,0.6338252432419411,left,stripes-2,stripes-4,left,right,0.7039825542246945,0.24784470224858524
CHE1998M,2019-05-22-16-56-09,8,12,0.576163614800038,right,heavy poles sphere,stripes-2,left,right,0.3872734414385377,0.21585414665241842
CHE1998M,2019-05-22-16-56-09,8,13,0.5260977757952826,right,heavy poles sphere,stripes-8,right,right,0.3263892538802793,0.26370158568852275
CHE1998M,2019-05-22-16-56-09,8,14,0.6894312522410051,left,stripes-8,stripes-4,left,left,0.36237209795581293,0.2318484914549117
CHE1998M,2019-05-22-16-56-09,8,15,0.5928646619265298,left,stripes-4,stripes-8,left,left,0.48992349124500834,0.24796008271323444
CHE1998M,2019-05-22-16-56-09,8,16,0.6802578039248516,right,stripes-8,stripes-4,right,right,0.8645818982045057,0.3438692387908304
CHE1998M,2019-05-22-16-56-09,8,17,0.6029985626684533,right,stripes-8,stripes-8,right,right,0.49505994341689075,0.2717144635166733
CHE1998M,2019-05-22-16-56-09,8,18,0.5808836536914931,right,heavy poles sphere,stripes-2,right,right,0.5217159407598047,0.2800147040120464
CHE1998M,2019-05-22-16-56-09,8,19,0.5921719966070795,right,stripes-4,heavy poles sphere,right,right,0.6824434161449062,0.25584949411404523
CHE1998M,2019-05-22-16-56-09,8,20,0.6214593494530141,right,heavy poles sphere,heavy poles sphere,right,right,0.42976828430482783,0.22383468063117107
CHE1998M,2019-05-22-16-56-09,8,21,0.5296570264052208,right,stripes-2,heavy poles sphere,right,right,0.6706422648908301,0.26394820754421744
CHE1998M,2019-05-22-16-56-09,8,22,0.5782352277808454,left,stripes-4,stripes-2,left,left,0.5532742083610174,0.2558155952715424
CHE1998M,2019-05-22-16-56-09,8,23,0.6229407922983987,left,stripes-2,stripes-8,left,left,0.6873808292402828,0.25582088224700783
CHE1998M,2019-05-22-16-56-09,8,24,0.508379137603399,left,stripes-8,heavy poles sphere,left,left,0.4452905332973387,0.2638045262110609
CHE1998M,2019-05-22-16-56-09,8,25,0.5406950095981569,right,heavy poles sphere,stripes-8,right,right,0.41947796404201654,0.29586598947753373
CHE1998M,2019-05-22-16-56-09,8,26,0.588639809635014,right,stripes-2,stripes-4,right,right,0.3981661659072415,0.27991145249097826
CHE1998M,2019-05-22-16-56-09,8,27,0.5441275626270453,right,stripes-4,stripes-8,right,right,0.3244343169494641,0.27985547275011413
CHE1998M,2019-05-22-16-56-09,8,28,0.5586255638375397,left,stripes-2,stripes-2,left,right,0.9413385191305679,0.3117984455666374
CHE1998M,2019-05-22-16-56-09,8,29,0.6943963918815559,right,stripes-4,stripes-4,right,right,0.26221470158589,0.3038371934994757
CHE1998M,2019-05-22-16-56-09,8,30,0.625229511936799,right,heavy poles sphere,stripes-4,right,right,0.4151504191172535,0.3038368825004909
CHE1998M,2019-05-22-16-56-09,8,31,0.6003225587721654,right,stripes-8,stripes-2,right,left,0.2892314572554824,0.3998337401712888
CHE1998M,2019-05-22-16-56-09,8,32,0.6828698857777363,left,stripes-8,heavy poles sphere,left,left,0.5227487669685615,0.20769198951666112
CHE1998M,2019-05-22-16-56-09,8,33,0.6317909580622103,right,stripes-4,stripes-4,right,right,0.6033642579932348,0.2958495065540774
CHE1998M,2019-05-22-16-56-09,8,34,0.5154812661297674,right,heavy poles sphere,stripes-8,right,right,0.43405197843276255,0.2959947428803389
CHE1998M,2019-05-22-16-56-09,8,35,0.6829404901866442,right,stripes-4,heavy poles sphere,right,right,0.5862440984133173,0.2797267193477637
CHE1998M,2019-05-22-16-56-09,8,36,0.5278913785824197,right,stripes-8,stripes-8,right,right,0.5855910014433903,0.2717125975250383
CHE1998M,2019-05-22-16-56-09,8,37,0.6798432165453637,right,stripes-8,stripes-2,right,left,0.4107379715865136,0.3518407538108477
CHE1998M,2019-05-22-16-56-09,8,38,0.6279578210865262,left,stripes-8,stripes-4,left,left,0.7300939930937602,0.26383811405503366
CHE1998M,2019-05-22-16-56-09,8,39,0.5246828274600097,right,stripes-2,stripes-4,right,right,0.58817260046726,0.3037367409651779
CHE1998M,2019-05-22-16-56-09,8,40,0.6012428920315515,left,heavy poles sphere,stripes-4,left,left,0.44066256376618185,0.26385584097261017
CHE1998M,2019-05-22-16-56-09,8,41,0.613988125723506,left,stripes-2,stripes-8,left,left,0.4194655240994507,0.25583705417193414
CHE1998M,2019-05-22-16-56-09,8,42,0.6209901928724406,left,stripes-2,stripes-2,left,right,0.48690960422618446,0.271837618945483
CHE1998M,2019-05-22-16-56-09,8,43,0.5326375632632471,right,stripes-4,stripes-8,right,right,1.0503369824864421,0.24784998922405066
CHE1998M,2019-05-22-16-56-09,8,44,0.6076120305629638,right,heavy poles sphere,stripes-2,right,right,3.4860185933598586,0.5037327601835386
CHE1998M,2019-05-22-16-56-09,8,45,0.6676200355769693,left,stripes-2,heavy poles sphere,left,left,0.38533996340811427,0.3038166675946741
CHE1998M,2019-05-22-16-56-09,8,46,0.6233388197682742,right,stripes-4,stripes-2,right,right,0.4440782609208327,0.3359683204430439
CHE1998M,2019-05-22-16-56-09,8,47,0.640119073624215,left,heavy poles sphere,heavy poles sphere,left,left,0.39693647761168904,0.2878300977563413
CHE1998M,2019-05-22-16-56-09,9,0,0.6810051444631774,right,heavy poles sphere,stripes-2,right,left,0.2952592312926754,0.29599878586168415
CHE1998M,2019-05-22-16-56-09,9,1,0.5981619682383262,left,stripes-4,stripes-8,left,right,0.3348555676052456,0.19179560926022532
CHE1998M,2019-05-22-16-56-09,9,2,0.5377208438600933,left,stripes-8,heavy poles sphere,left,right,0.5252056555709714,0.19993506350101597
CHE1998M,2019-05-22-16-56-09,9,3,0.6296590690839452,right,stripes-2,stripes-8,right,left,0.2998980857728384,0.2878204568005458
CHE1998M,2019-05-22-16-56-09,9,4,0.5079995067692433,left,stripes-8,stripes-4,left,left,0.311544359745767,0.2639631354750236
CHE1998M,2019-05-22-16-56-09,9,5,0.602445301318133,right,stripes-4,heavy poles sphere,right,right,0.3210808195062782,0.2878133038343549
CHE1998M,2019-05-22-16-56-09,9,6,0.676052091199752,left,stripes-2,stripes-2,right,left,0.2931714979777098,0.31184043037183073
CHE1998M,2019-05-22-16-56-09,9,7,0.6181638404313006,left,heavy poles sphere,heavy poles sphere,left,left,0.17412280524422385,0.23194552300446958
CHE1998M,2019-05-22-16-56-09,9,8,0.599052807650753,left,stripes-8,stripes-8,left,left,0.2772701417434291,0.21572446025402314
CHE1998M,2019-05-22-16-56-09,9,9,0.5651567563524073,right,heavy poles sphere,stripes-4,right,right,0.3474845970190472,0.23982684844304458
CHE1998M,2019-05-22-16-56-09,9,10,0.6326826732534413,left,stripes-8,stripes-2,left,left,0.4096780885033695,0.2638098131865263
CHE1998M,2019-05-22-16-56-09,9,11,0.5852725212956579,right,stripes-4,stripes-4,right,right,0.3104807446798077,0.31199188666960254
CHE1998M,2019-05-22-16-56-09,9,12,0.6333403068133262,left,stripes-2,stripes-4,left,right,0.3793037924097007,0.23981067651811827
CHE1998M,2019-05-22-16-56-09,9,13,0.5952007532003374,right,heavy poles sphere,stripes-8,right,right,0.34753217979823603,0.24778623451993553
CHE1998M,2019-05-22-16-56-09,9,14,0.5909776960487192,right,stripes-2,heavy poles sphere,right,right,0.22044324136368232,0.6558396665595865
CHE1998M,2019-05-22-16-56-09,9,15,0.6178436848686186,left,stripes-4,stripes-2,left,left,0.40703833274938006,0.2639416765741771
CHE1998M,2019-05-22-16-56-09,9,16,0.5141665381640915,left,stripes-8,stripes-4,left,left,0.4466013922160528,0.29593751914580935
CHE1998M,2019-05-22-16-56-09,9,17,0.6157506122622565,right,stripes-2,stripes-8,right,right,0.3353058935158515,0.31193186394830263
CHE1998M,2019-05-22-16-56-09,9,18,0.512057191774562,right,stripes-8,stripes-2,right,right,0.32019913859630833,0.31181710548025876
CHE1998M,2019-05-22-16-56-09,9,19,0.6974005598545604,right,stripes-4,stripes-8,right,right,0.5382669729797271,0.2958684774662288
CHE1998M,2019-05-22-16-56-09,9,20,0.6993144137134142,left,heavy poles sphere,stripes-2,left,left,0.3810173944602866,0.25583363318764896
CHE1998M,2019-05-22-16-56-09,9,21,0.6864842963448206,left,heavy poles sphere,stripes-8,left,left,0.568335868489612,0.26397059944065404
CHE1998M,2019-05-22-16-56-09,9,22,0.635191389524851,right,heavy poles sphere,heavy poles sphere,right,right,0.4070504616929611,0.2878185908098203
CHE1998M,2019-05-22-16-56-09,9,23,0.5881994860934258,left,stripes-8,stripes-8,left,left,0.7791745414092475,0.26382691810704273
CHE1998M,2019-05-22-16-56-09,9,24,0.5088323150808516,left,stripes-4,heavy poles sphere,left,left,0.3492296099238956,0.23972079793520606
CHE1998M,2019-05-22-16-56-09,9,25,0.6496106599460764,left,stripes-2,stripes-2,left,right,0.3866075935270601,0.2878403607087421
CHE1998M,2019-05-22-16-56-09,9,26,0.6515864896065051,left,stripes-8,heavy poles sphere,left,left,0.4300282790991332,0.2639528725226228
CHE1998M,2019-05-22-16-56-09,9,27,0.6040176634271394,right,stripes-4,stripes-4,right,right,0.5854830849439168,0.25583425518470904
CHE1998M,2019-05-22-16-56-09,9,28,0.5860598075656159,right,stripes-4,stripes-2,right,right,0.28753775911218327,0.27998515914896416
CHE1998M,2019-05-22-16-56-09,9,29,0.5376409513306394,right,stripes-2,heavy poles sphere,right,right,0.22785900196186049,0.2878341407372318
CHE1998M,2019-05-22-16-56-09,9,30,0.6197932302203645,right,stripes-2,stripes-4,right,right,0.4534296765395993,0.2878406717072721
CHE1998M,2019-05-22-16-56-09,9,31,0.6156993735069772,left,heavy poles sphere,stripes-4,left,left,0.6075086247674335,0.23185284543433227
CHE1998M,2019-05-22-16-56-09,9,32,0.6769850886944402,right,stripes-8,stripes-8,right,right,0.2741268793256495,0.2959984748631541
CHE1998M,2019-05-22-16-56-09,9,33,0.6881939531549708,left,stripes-4,heavy poles sphere,left,left,0.41639099236226684,0.2558784169800674
CHE1998M,2019-05-22-16-56-09,9,34,0.6377304175993866,left,stripes-4,stripes-4,left,right,0.4510744844656074,0.2638231861242275
CHE1998M,2019-05-22-16-56-09,9,35,0.6785650525364573,left,stripes-2,stripes-2,left,right,0.45842742335526054,0.23983680039691535
CHE1998M,2019-05-22-16-56-09,9,36,0.5352414720160447,left,heavy poles sphere,heavy poles sphere,left,left,0.49077562729189594,0.19185438798740506
CHE1998M,2019-05-22-16-56-09,9,37,0.5687391765954588,left,stripes-2,heavy poles sphere,left,right,0.5528257484415917,0.23985421631641657
CHE1998M,2019-05-22-16-56-09,9,38,0.5797491235048102,left,heavy poles sphere,stripes-4,left,right,0.4902487957356243,0.1839295227509865
CHE1998M,2019-05-22-16-56-09,9,39,0.632225737639847,left,stripes-8,stripes-2,left,right,0.5490393410063916,0.20792275044641428
CHE1998M,2019-05-22-16-56-09,9,40,0.6895781927930549,left,stripes-2,stripes-8,left,left,0.3623192282011587,0.25583207819499876
CHE1998M,2019-05-22-16-56-09,9,41,0.6917637858632633,left,stripes-8,heavy poles sphere,left,left,0.5265028305534543,0.2558529150983304
CHE1998M,2019-05-22-16-56-09,9,42,0.5156324922227491,right,stripes-8,stripes-4,right,right,0.889263987704453,0.2399422289076938
CHE1998M,2019-05-22-16-56-09,9,43,0.6593716491313066,right,stripes-4,stripes-8,right,left,0.8642873825710922,0.26381603315758184
CHE1998M,2019-05-22-16-56-09,9,44,0.6044477569403837,left,heavy poles sphere,stripes-2,left,right,2.0346735401494698,0.24784719023682555
CHE1998M,2019-05-22-16-56-09,9,45,0.6767792118419392,left,heavy poles sphere,stripes-8,left,left,0.41946801208814577,0.2398383553900203
CHE1998M,2019-05-22-16-56-09,9,46,0.5269709577798144,right,stripes-4,stripes-2,right,right,0.24304692750547474,0.3039858508100224
CHE1998M,2019-05-22-16-56-09,9,47,0.5843135682356013,left,stripes-2,stripes-4,left,left,0.5012898665163448,0.23186279738820303
CHE1998M,2019-05-22-16-56-09,10,0,0.6667235958547524,right,stripes-8,stripes-8,right,right,0.353735979018893,0.2559169808009756
CHE1998M,2019-05-22-16-56-09,10,1,0.5050067844920748,right,heavy poles sphere,stripes-8,right,right,0.2772203819749848,0.27996463324416254
CHE1998M,2019-05-22-16-56-09,10,2,0.5163530683341306,left,stripes-4,stripes-8,left,right,0.41746020540176687,0.22382659466848054
CHE1998M,2019-05-22-16-56-09,10,3,0.5940931682948267,left,heavy poles sphere,stripes-4,left,left,0.43238938014565065,0.20795633829038707
CHE1998M,2019-05-22-16-56-09,10,4,0.6840901066144183,left,stripes-4,stripes-4,left,right,0.6105825345075573,0.16769913004372938
CHE1998M,2019-05-22-16-56-09,10,5,0.5987429688676734,right,stripes-8,heavy poles sphere,right,right,0.4360050493728522,0.26370220768558283
CHE1998M,2019-05-22-16-56-09,10,6,0.5309589007537079,left,stripes-2,stripes-2,left,right,1.2500754948996473,0.19181022619204668
CHE1998M,2019-05-22-16-56-09,10,7,0.5548356933035968,right,stripes-4,stripes-2,right,right,0.46491423126281006,0.3040066877128993
CHE1998M,2019-05-22-16-56-09,10,8,0.6906564072692032,left,stripes-8,stripes-4,left,left,0.4855878603580095,0.24798558459497144
CHE1998M,2019-05-22-16-56-09,10,9,0.6582490539685306,left,stripes-8,stripes-2,left,right,0.573127112263137,0.26367390681662073
CHE1998M,2019-05-22-16-56-09,10,10,0.5758667153427226,left,stripes-4,heavy poles sphere,left,left,0.42917676504885094,0.23970120502644932
CHE1998M,2019-05-22-16-56-09,10,11,0.500082553264716,left,stripes-2,heavy poles sphere,right,left,0.9826102046708911,0.29584142059138685
CHE1998M,2019-05-22-16-56-09,10,12,0.6023079376643451,right,stripes-2,stripes-4,right,right,0.3543809900265842,0.24773118777511627
CHE1998M,2019-05-22-16-56-09,10,13,0.5114745410208905,left,heavy poles sphere,stripes-2,left,right,0.5025102248550866,0.18387354301057712
CHE1998M,2019-05-22-16-56-09,10,14,0.5996326566987091,right,heavy poles sphere,heavy poles sphere,right,right,0.3967333955538379,0.2718189590318616
CHE1998M,2019-05-22-16-56-09,10,15,0.6925699089827376,right,stripes-2,stripes-8,right,right,0.3974412282700541,0.3038692263503435
CHE1998M,2019-05-22-16-56-09,10,16,0.5329291486709241,left,stripes-4,stripes-2,left,right,0.7069354855261736,0.22386453649232863
CHE1998M,2019-05-22-16-56-09,10,17,0.6850052176717281,right,heavy poles sphere,stripes-4,right,right,0.37026586333695377,0.24772341281141053
CHE1998M,2019-05-22-16-56-09,10,18,0.6590888142476748,left,stripes-8,heavy poles sphere,left,left,0.49561103286077923,0.26385179799171965
CHE1998M,2019-05-22-16-56-09,10,19,0.6461581411386625,right,heavy poles sphere,heavy poles sphere,right,left,1.089036398960161,0.24792804986191186
CHE1998M,2019-05-22-16-56-09,10,20,0.6182114764513982,left,heavy poles sphere,stripes-2,left,left,0.5626321549498243,0.2079389223713406
CHE1998M,2019-05-22-16-56-09,10,21,0.5529164955054149,right,stripes-8,stripes-2,right,right,0.356860892522036,0.2797077484356123
CHE1998M,2019-05-22-16-56-09,10,22,0.5388702461588987,right,stripes-4,stripes-4,right,right,0.372964708816653,0.29595866704767104
CHE1998M,2019-05-22-16-56-09,10,23,0.5393348849601522,left,stripes-2,stripes-4,right,right,0.3958047538617393,0.2798548507535088
CHE1998M,2019-05-22-16-56-09,10,24,0.5982158299458322,right,stripes-4,heavy poles sphere,right,right,0.4333463227062566,0.2638266071085127
CHE1998M,2019-05-22-16-56-09,10,25,0.5751038899481365,right,stripes-4,stripes-8,right,right,0.4455722979901111,0.24771719283990024
CHE1998M,2019-05-22-16-56-09,10,26,0.6557009804765501,right,stripes-2,heavy poles sphere,right,right,0.3995849413254291,0.28779775390648865
CHE1998M,2019-05-22-16-56-09,10,27,0.6872981724611579,left,stripes-2,stripes-2,right,left,0.4236024269084737,0.3678347876143562
CHE1998M,2019-05-22-16-56-09,10,28,0.5332450125907181,right,stripes-2,stripes-8,right,right,0.505681477143753,0.2878624416061939
CHE1998M,2019-05-22-16-56-09,10,29,0.5974662192654516,right,stripes-8,stripes-4,right,right,1.5370220457548385,1.9359227902541534
CHE1998M,2019-05-22-16-56-09,10,30,0.5223681355155158,left,heavy poles sphere,stripes-8,left,left,0.40761212508778044,0.33595463650635793
CHE1998M,2019-05-22-16-56-09,10,31,0.6722023957751012,right,stripes-8,stripes-8,right,right,0.4462819966979623,0.3358728438856815
CHE1998M,2019-05-22-16-56-09,10,32,0.5598414916808825,right,stripes-4,stripes-8,right,right,0.43105053135695925,0.3198831640620483
CHE1998M,2019-05-22-16-56-09,10,33,0.6828046283717324,right,stripes-2,heavy poles sphere,right,left,0.4777357687839867,0.33585169598427456
CHE1998M,2019-05-22-16-56-09,10,34,0.5016494371510535,right,heavy poles sphere,stripes-8,right,right,0.625193557727016,0.30383594950535553
CHE1998M,2019-05-22-16-56-09,10,35,0.6964507668732215,left,heavy poles sphere,stripes-2,right,right,0.9683717577236166,0.6319947851761754
CHE1998M,2019-05-22-16-56-09,10,36,0.6345168800752845,right,stripes-8,heavy poles sphere,right,right,0.5024374511926908,0.30380951462757366
CHE1998M,2019-05-22-16-56-09,10,37,0.5801283734507454,left,stripes-2,stripes-2,right,left,0.5579556696438885,0.29573474808648825
CHE1998M,2019-05-22-16-56-09,10,38,0.5224241776088767,right,stripes-4,heavy poles sphere,right,right,0.42317387089633485,0.31201241257440415
CHE1998M,2019-05-22-16-56-09,10,39,0.6150424410998998,left,stripes-4,stripes-4,left,right,0.5927324613139717,0.2238636034967385
CHE1998M,2019-05-22-16-56-09,10,40,0.5328441851264921,left,stripes-8,stripes-8,right,right,0.5453278842237523,0.32784566012423966
CHE1998M,2019-05-22-16-56-09,10,41,0.5100123484924233,right,stripes-8,stripes-4,right,right,0.4974082935232218,0.3039867838056125
CHE1998M,2019-05-22-16-56-09,10,42,0.5642829986439848,right,stripes-2,stripes-8,right,right,0.40212828752692076,0.33598542536356035
CHE1998M,2019-05-22-16-56-09,10,43,0.6437070350979697,right,heavy poles sphere,stripes-4,right,right,0.6348475749418867,0.3118516263202764
CHE1998M,2019-05-22-16-56-09,10,44,0.6629829179071413,left,heavy poles sphere,heavy poles sphere,right,right,0.3002691070514629,0.3116880410793783
CHE1998M,2019-05-22-16-56-09,10,45,0.6608997869351333,left,stripes-8,stripes-2,left,left,0.9915246673172078,0.23996804178841558
CHE1998M,2019-05-22-16-56-09,10,46,0.6957540551426782,right,stripes-4,stripes-2,right,right,0.5211614303320857,0.3039786978424672
CHE1998M,2019-05-22-16-56-09,10,47,0.5355605346178955,right,stripes-2,stripes-4,right,right,0.5218471821508501,0.29589335735045097
