Participant,Session,Block,Trial,OnsetDelay,Bias,Shape1,Shape2,Response1,Response2,RT1,RT2
KSB1989M,2019-05-20-16-54-24,0,0,0.6809725734009975,right,stripes-2,stripes-4,right,right,16.226187347749374,0.471715657904042
KSB1989M,2019-05-20-16-54-24,0,1,0.5088601525308052,left,heavy poles sphere,heavy poles sphere,right,right,1.0933837183372361,0.311833872543275
KSB1989M,2019-05-20-16-54-24,0,2,0.6619346948875613,left,stripes-4,stripes-8,right,right,0.8728334287563939,0.279957095412783
KSB1989M,2019-05-20-16-54-24,0,3,0.5367800415489778,right,stripes-8,stripes-8,right,right,19.962286196235937,0.2157787247856504
KSB1989M,2019-05-20-16-54-24,0,4,0.5863506010822666,left,heavy poles sphere,stripes-8,right,right,1.0443982861800123,0.21584652124852255
KSB1989M,2019-05-20-16-54-24,0,5,0.5001658931293433,left,stripes-4,stripes-2,right,right,2.100038656423294,0.18385405474168692
KSB1989M,2019-05-20-16-54-24,0,6,0.5106432293693501,left,heavy poles sphere,stripes-2,right,right,1.331084957986377,0.15983420343968646
KSB1989M,2019-05-20-16-54-24,0,7,0.5644549237656157,left,stripes-4,stripes-4,left,left,0.8386043009702462,0.18369420436647488
KSB1989M,2019-05-20-16-54-24,0,8,0.5618346899751174,left,stripes-8,heavy poles sphere,left,left,0.5177513219532557,0.15978288960332065
KSB1989M,2019-05-20-16-54-24,0,9,0.5027000852541414,left,stripes-8,stripes-2,right,right,0.5412306675120817,0.20786675320573522
KSB1989M,2019-05-20-16-54-24,0,10,0.5681013256073579,left,stripes-2,stripes-8,right,right,0.9426270880455832,0.19181454122167452
KSB1989M,2019-05-20-16-54-24,0,11,0.5779234396482174,right,stripes-2,heavy poles sphere,right,right,0.7138684506053323,0.19971656102757152
KSB1989M,2019-05-20-16-54-24,0,12,0.5302271039111708,left,stripes-8,stripes-4,right,right,0.7504110549286906,0.16779935481417851
KSB1989M,2019-05-20-16-54-24,0,13,0.5032563171893136,left,stripes-2,stripes-2,left,left,0.8838531528622298,0.19967271102200357
KSB1989M,2019-05-20-16-54-24,0,14,0.5092292858627343,left,heavy poles sphere,stripes-4,right,right,0.955706829436167,0.1757215891616397
KSB1989M,2019-05-20-16-54-24,0,15,0.6141922661689846,left,stripes-4,heavy poles sphere,right,right,0.9735170845528955,0.18369047245118963
KSB1989M,2019-05-20-16-54-24,0,16,0.6535957885531405,right,stripes-8,heavy poles sphere,right,right,0.763718443156904,0.26383180008633644
KSB1989M,2019-05-20-16-54-24,0,17,0.5755814655761972,left,stripes-4,stripes-2,right,right,0.825539176248185,0.14384916593235175
KSB1989M,2019-05-20-16-54-24,0,18,0.6416016728126686,left,stripes-8,stripes-4,right,right,1.0547468875047343,0.15181836021520212
KSB1989M,2019-05-20-16-54-24,0,19,0.6386004714547562,right,stripes-4,heavy poles sphere,right,right,0.876402383823006,0.1679704009352463
KSB1989M,2019-05-20-16-54-24,0,20,0.6635007218419606,left,stripes-2,stripes-2,right,right,1.1741280612980063,0.13583207873602987
KSB1989M,2019-05-20-16-54-24,0,21,0.6989397399571659,right,heavy poles sphere,stripes-2,right,right,1.2689958379812651,0.19980612699646372
KSB1989M,2019-05-20-16-54-24,0,22,0.5358161986282278,left,heavy poles sphere,stripes-8,right,right,0.9719148488870815,0.15981678783464304
KSB1989M,2019-05-20-16-54-24,0,23,0.6883759533665527,left,stripes-4,stripes-8,right,right,0.9208809061835836,0.18391407638046076
KSB1989M,2019-05-20-16-54-24,0,24,0.6271767325054886,left,heavy poles sphere,heavy poles sphere,right,right,0.9080213477998313,0.15983793535519908
KSB1989M,2019-05-20-16-54-24,0,25,0.5655022418141948,left,stripes-8,stripes-2,right,right,0.8251774914501766,0.16782330127080058
KSB1989M,2019-05-20-16-54-24,0,26,0.6739398370999543,left,stripes-4,stripes-4,right,right,0.8130835977030983,0.17569888667640043
KSB1989M,2019-05-20-16-54-24,0,27,0.5450589400636691,left,stripes-2,heavy poles sphere,right,right,0.9902416632899076,0.17580617924340913
KSB1989M,2019-05-20-16-54-24,0,28,0.6815724770645909,left,stripes-2,stripes-8,right,right,0.9225086432713852,0.28786875600030726
KSB1989M,2019-05-20-16-54-24,0,29,0.6202794144879089,left,stripes-8,stripes-8,right,right,0.8956037103946528,0.18372405968943895
KSB1989M,2019-05-20-16-54-24,0,30,0.6693983832963859,left,stripes-2,stripes-4,right,right,1.2559484398573204,0.19992150537996167
KSB1989M,2019-05-20-16-54-24,0,31,0.6543107935044489,right,heavy poles sphere,stripes-4,right,right,0.7947129332947043,0.14383392727791033
KSB1989M,2019-05-20-16-54-24,0,32,0.5523152751242141,left,stripes-4,stripes-8,right,right,0.7974841914508488,0.19182511498183885
KSB1989M,2019-05-20-16-54-24,0,33,0.5874922511771727,right,heavy poles sphere,heavy poles sphere,right,right,0.8553780165925673,0.1677063679226194
KSB1989M,2019-05-20-16-54-24,0,34,0.5926443018179405,left,stripes-2,stripes-4,right,right,0.9237799824413742,0.31980804271302077
KSB1989M,2019-05-20-16-54-24,0,35,0.6139064202690343,right,heavy poles sphere,stripes-2,right,right,0.8807342045904534,0.2558523430363948
KSB1989M,2019-05-20-16-54-24,0,36,0.5546231188669979,right,heavy poles sphere,stripes-4,right,right,0.9165276269029619,0.23180356939042213
KSB1989M,2019-05-20-16-54-24,0,37,0.6381158057868332,right,stripes-4,stripes-2,right,right,0.7548946402544061,0.2638038107211287
KSB1989M,2019-05-20-16-54-24,0,38,0.5823893234138978,left,stripes-4,stripes-4,right,right,1.1927431661633818,0.2558542089941511
KSB1989M,2019-05-20-16-54-24,0,39,0.6162301340843475,left,stripes-4,heavy poles sphere,right,right,1.2530179533118826,0.19969105960581146
KSB1989M,2019-05-20-16-54-24,0,40,0.5427216935514405,right,stripes-8,stripes-2,right,right,0.9551647687285367,0.1997078532251635
KSB1989M,2019-05-20-16-54-24,0,41,0.6095249593236683,right,stripes-2,stripes-2,right,right,1.1707743133508757,0.3279000792099396
KSB1989M,2019-05-20-16-54-24,0,42,0.5506306033205428,left,stripes-8,heavy poles sphere,right,right,0.9515871058592893,0.231815387122424
KSB1989M,2019-05-20-16-54-24,0,43,0.5954205338379538,left,stripes-2,heavy poles sphere,right,right,1.1521190903954448,0.17570541752820645
KSB1989M,2019-05-20-16-54-24,0,44,0.5046461789161447,right,stripes-2,stripes-8,right,right,0.9489859608454481,0.19182542597491192
KSB1989M,2019-05-20-16-54-24,0,45,0.5899854627217663,right,stripes-8,stripes-8,right,right,1.029380436739757,0.21580951308760632
KSB1989M,2019-05-20-16-54-24,0,46,0.6728658532215573,left,stripes-8,stripes-4,right,right,1.1502749022158696,0.2959803850528715
KSB1989M,2019-05-20-16-54-24,0,47,0.5807665850324438,left,heavy poles sphere,stripes-8,right,right,1.1319207204339818,0.21571683718912027
KSB1989M,2019-05-20-16-54-24,1,0,0.6999071601384907,left,heavy poles sphere,stripes-2,right,right,0.5288718077738395,0.22380918467911215
KSB1989M,2019-05-20-16-54-24,1,1,0.670672849355271,left,stripes-4,stripes-8,right,right,0.4148792087842139,0.3518499570984659
KSB1989M,2019-05-20-16-54-24,1,2,0.5783809795030901,right,stripes-4,stripes-2,right,right,0.4323072535685242,0.29588055631666066
KSB1989M,2019-05-20-16-54-24,1,3,0.6506526083853418,left,heavy poles sphere,stripes-8,right,right,0.6577320466103629,0.23980292998885488
KSB1989M,2019-05-20-16-54-24,1,4,0.6247423333596822,right,stripes-8,stripes-2,right,right,0.45167900427532004,0.26381593944597626
KSB1989M,2019-05-20-16-54-24,1,5,0.6968198009568519,right,stripes-2,stripes-4,right,right,0.5623548634787312,0.343837223803348
KSB1989M,2019-05-20-16-54-24,1,6,0.5392294278504836,left,stripes-4,heavy poles sphere,right,right,0.5931419213206937,0.3357165759553027
KSB1989M,2019-05-20-16-54-24,1,7,0.579473376034317,right,heavy poles sphere,heavy poles sphere,right,right,0.43773998937035685,0.2479347735832107
KSB1989M,2019-05-20-16-54-24,1,8,0.5254462360317593,left,stripes-2,stripes-2,right,right,0.4045511329939018,0.3278686689220649
KSB1989M,2019-05-20-16-54-24,1,9,0.6262931918767245,right,stripes-4,stripes-4,right,right,0.4534106130076907,0.2558433242409137
KSB1989M,2019-05-20-16-54-24,1,10,0.566250300069767,left,stripes-8,stripes-8,right,right,0.44150642495878856,0.2397127420342713
KSB1989M,2019-05-20-16-54-24,1,11,0.5305227426482315,right,stripes-8,heavy poles sphere,right,right,0.681617859951757,0.2718149890515633
KSB1989M,2019-05-20-16-54-24,1,12,0.5574969883856593,right,heavy poles sphere,stripes-4,right,right,0.6377417309306566,0.24773169518834948
KSB1989M,2019-05-20-16-54-24,1,13,0.5818823627699614,left,stripes-2,stripes-8,right,right,0.5542780656362538,0.2637882610736142
KSB1989M,2019-05-20-16-54-24,1,14,0.660307818037421,right,stripes-8,stripes-4,right,right,0.6542112954502954,0.24795187819518105
KSB1989M,2019-05-20-16-54-24,1,15,0.6079354436405497,left,stripes-2,heavy poles sphere,right,right,0.49023933084276905,0.23978800232748654
KSB1989M,2019-05-20-16-54-24,1,16,0.5592927731406061,left,heavy poles sphere,stripes-2,right,right,0.6869943060301011,0.24781970619255844
KSB1989M,2019-05-20-16-54-24,1,17,0.6637087957815828,left,stripes-8,stripes-2,right,right,0.646200739106007,0.2558573189235176
KSB1989M,2019-05-20-16-54-24,1,18,0.6123160224762036,left,stripes-4,stripes-2,right,left,0.4647994857421054,0.27183644756496506
KSB1989M,2019-05-20-16-54-24,1,19,0.6326983469487094,right,heavy poles sphere,heavy poles sphere,right,right,0.3155844474915739,0.2158458992623764
KSB1989M,2019-05-20-16-54-24,1,20,0.5546003797873742,left,stripes-4,heavy poles sphere,right,right,0.3447226207251788,0.23970185728103388
KSB1989M,2019-05-20-16-54-24,1,21,0.6990917542316026,right,stripes-4,stripes-8,right,right,0.4767077166991385,0.21581822089001435
KSB1989M,2019-05-20-16-54-24,1,22,0.6177620597129931,left,heavy poles sphere,stripes-8,right,right,0.40884190269230203,0.22388724390907555
KSB1989M,2019-05-20-16-54-24,1,23,0.63637703908116,right,stripes-2,heavy poles sphere,right,right,0.6543453334109017,0.30382549314913376
KSB1989M,2019-05-20-16-54-24,1,24,0.6341187251290176,right,stripes-2,stripes-2,right,right,0.7735336915764037,0.2798470039094809
KSB1989M,2019-05-20-16-54-24,1,25,0.6941646733421363,left,heavy poles sphere,stripes-4,right,right,0.903288346130239,0.27180565926300915
KSB1989M,2019-05-20-16-54-24,1,26,0.6949773699359612,left,stripes-8,heavy poles sphere,right,right,0.5724067775315689,0.25582217672058505
KSB1989M,2019-05-20-16-54-24,1,27,0.6608387594675277,right,stripes-8,stripes-8,right,right,0.38357714662106446,0.28781060031906236
KSB1989M,2019-05-20-16-54-24,1,28,0.6038812682507689,left,stripes-4,stripes-4,right,left,0.5715944639523514,0.31979311505142505
KSB1989M,2019-05-20-16-54-24,1,29,0.6015368486228838,left,stripes-2,stripes-8,right,right,0.4470044692795909,0.279824301424469
KSB1989M,2019-05-20-16-54-24,1,30,0.5513421164893864,right,stripes-8,stripes-4,right,right,0.6831249317760921,0.27981901454427316
KSB1989M,2019-05-20-16-54-24,1,31,0.5228186529201037,left,stripes-2,stripes-4,right,right,0.7503864864856951,0.2878208630861536
KSB1989M,2019-05-20-16-54-24,1,32,0.6213268461860606,right,stripes-4,stripes-8,right,right,0.7068776401358718,0.27183427061436305
KSB1989M,2019-05-20-16-54-24,1,33,0.6961969995730287,right,stripes-4,stripes-4,right,right,0.654790675311915,0.2476869122037897
KSB1989M,2019-05-20-16-54-24,1,34,0.6221932088377545,right,stripes-2,stripes-4,right,right,0.8087486670065118,0.27968311062613793
KSB1989M,2019-05-20-16-54-24,1,35,0.6380675256049357,left,heavy poles sphere,stripes-8,right,right,0.44387152632521065,0.23176904917318097
KSB1989M,2019-05-20-16-54-24,1,36,0.6341112226668616,right,stripes-8,stripes-2,right,right,0.43852151464761846,0.2637882610736142
KSB1989M,2019-05-20-16-54-24,1,37,0.6914674926408166,right,stripes-8,stripes-4,right,right,0.41335814227750234,0.2878345467759118
KSB1989M,2019-05-20-16-54-24,1,38,0.5949054294010828,left,stripes-2,heavy poles sphere,right,right,0.5860236037428876,0.2717869996861282
KSB1989M,2019-05-20-16-54-24,1,39,0.6204630473293362,left,stripes-2,stripes-2,right,right,0.8059665240971299,0.31184133637407285
KSB1989M,2019-05-20-16-54-24,1,40,0.5432776390196827,left,stripes-4,stripes-2,right,right,0.7624598546979087,0.2959763421445132
KSB1989M,2019-05-20-16-54-24,1,41,0.5234955685281055,right,stripes-2,stripes-8,right,right,0.5943386221831588,0.2958463470922652
KSB1989M,2019-05-20-16-54-24,1,42,0.602625488375176,left,stripes-8,heavy poles sphere,right,right,0.48713842016218223,0.30372504242723153
KSB1989M,2019-05-20-16-54-24,1,43,0.5909336757385444,right,heavy poles sphere,stripes-4,right,right,0.5198346637093891,0.25585141005763035
KSB1989M,2019-05-20-16-54-24,1,44,0.5774177663647401,right,stripes-4,heavy poles sphere,right,right,0.6571346291580085,0.25584208026930355
KSB1989M,2019-05-20-16-54-24,1,45,0.6592275951815156,right,heavy poles sphere,heavy poles sphere,right,right,0.5078312689101949,0.2877981606011417
KSB1989M,2019-05-20-16-54-24,1,46,0.5130873260280433,left,stripes-8,stripes-8,right,right,1.3666557093486063,0.2797067460901417
KSB1989M,2019-05-20-16-54-24,1,47,0.6778708172860534,right,heavy poles sphere,stripes-2,right,right,0.736583064505794,0.28785351734563847
KSB1989M,2019-05-20-16-54-24,2,0,0.6772031959330891,left,stripes-4,heavy poles sphere,right,right,0.7394386017506349,0.2637080248930488
KSB1989M,2019-05-20-16-54-24,2,1,0.6140478278607325,right,stripes-4,stripes-4,right,right,0.441870597700472,0.3039138151464158
KSB1989M,2019-05-20-16-54-24,2,2,0.5438885561560609,left,stripes-8,heavy poles sphere,right,right,0.49482709880589937,0.2716921468370401
KSB1989M,2019-05-20-16-54-24,2,3,0.6173624125256951,left,stripes-8,stripes-4,right,right,0.4460288844029492,0.2478697760570867
KSB1989M,2019-05-20-16-54-24,2,4,0.6780157304856622,left,stripes-8,stripes-8,right,right,0.7741447927185163,0.24793197464646255
KSB1989M,2019-05-20-16-54-24,2,5,0.5765875163538908,left,heavy poles sphere,stripes-2,right,right,0.47797128104525655,0.2558010292002564
KSB1989M,2019-05-20-16-54-24,2,6,0.6669567955765979,left,stripes-4,stripes-2,right,right,0.6686656256697461,0.27183458160720875
KSB1989M,2019-05-20-16-54-24,2,7,0.5747017339966707,right,stripes-4,stripes-8,right,right,0.40728102908792607,0.26398543060258817
KSB1989M,2019-05-20-16-54-24,2,8,0.5113800957182201,left,stripes-2,stripes-8,right,right,0.8315298333980081,0.28784480954323044
KSB1989M,2019-05-20-16-54-24,2,9,0.5577925103824939,left,stripes-2,stripes-2,right,left,0.6513050663550075,0.31182640871247713
KSB1989M,2019-05-20-16-54-24,2,10,0.5892302710734768,right,heavy poles sphere,stripes-4,right,right,0.46852891316984824,0.3118497331836352
KSB1989M,2019-05-20-16-54-24,2,11,0.6297972747587504,right,stripes-2,heavy poles sphere,right,right,0.7247074878082458,0.30372721937783353
KSB1989M,2019-05-20-16-54-24,2,12,0.6436804463104524,left,heavy poles sphere,heavy poles sphere,right,right,0.7871007589160399,0.295990025834044
KSB1989M,2019-05-20-16-54-24,2,13,0.5287009990411751,left,stripes-2,stripes-4,right,left,0.8736124660899804,0.33579619014972195
KSB1989M,2019-05-20-16-54-24,2,14,0.5921983399651236,left,heavy poles sphere,stripes-8,right,right,0.6573576111013608,0.29581151588240573
KSB1989M,2019-05-20-16-54-24,2,15,0.5917049956321341,right,stripes-8,stripes-2,right,right,0.8107570594622757,0.28780189251642696
KSB1989M,2019-05-20-16-54-24,2,16,0.5881664147428864,right,heavy poles sphere,heavy poles sphere,right,right,0.9443848201854053,0.28783734571265995
KSB1989M,2019-05-20-16-54-24,2,17,0.6007379055557144,left,heavy poles sphere,stripes-8,right,right,0.7669148286724976,0.27167815215443625
KSB1989M,2019-05-20-16-54-24,2,18,0.6572968806355866,left,heavy poles sphere,stripes-2,right,right,0.8273040612259592,0.303795326833324
KSB1989M,2019-05-20-16-54-24,2,19,0.6724257730887798,left,stripes-4,heavy poles sphere,right,right,0.8511211451257168,0.2637036709918448
KSB1989M,2019-05-20-16-54-24,2,20,0.5059031690345644,right,stripes-4,stripes-2,right,right,0.7048434352655022,0.2878186861355516
KSB1989M,2019-05-20-16-54-24,2,21,0.6538312999476809,right,stripes-2,heavy poles sphere,right,right,0.4073718390288832,0.2718470213251294
KSB1989M,2019-05-20-16-54-24,2,22,0.6778893784242379,left,stripes-8,stripes-4,right,right,0.8001145698019627,0.279805330854515
KSB1989M,2019-05-20-16-54-24,2,23,0.5050465478021409,right,stripes-4,stripes-8,right,right,0.607346524202967,0.27980999574879206
KSB1989M,2019-05-20-16-54-24,2,24,0.5568386741528586,left,stripes-8,heavy poles sphere,right,right,0.7019508898595177,0.2638237142696198
KSB1989M,2019-05-20-16-54-24,2,25,0.6640634428086917,left,stripes-8,stripes-2,right,right,0.6118668066965256,0.30380745555839894
KSB1989M,2019-05-20-16-54-24,2,26,0.5906030268076161,right,stripes-2,stripes-2,right,right,0.3504986927412119,0.27181934295276733
KSB1989M,2019-05-20-16-54-24,2,27,0.6546046014396616,right,stripes-4,stripes-4,right,right,0.8106544317893167,0.2397015462879608
KSB1989M,2019-05-20-16-54-24,2,28,0.581673895898602,right,heavy poles sphere,stripes-4,right,right,1.0250591897327013,0.23996433532875017
KSB1989M,2019-05-20-16-54-24,2,29,0.6032276921911146,right,stripes-8,stripes-8,right,right,0.7567438043208767,0.3038152303820425
KSB1989M,2019-05-20-16-54-24,2,30,0.6739096577288056,left,stripes-2,stripes-4,right,right,0.5504904825272661,0.24794503635052934
KSB1989M,2019-05-20-16-54-24,2,31,0.5466669736920552,left,stripes-2,stripes-8,right,right,1.0079959396762206,0.3117483494827411
KSB1989M,2019-05-20-16-54-24,2,32,0.5369552879362213,left,stripes-2,stripes-2,right,left,0.8603467509167331,0.2956908506187119
KSB1989M,2019-05-20-16-54-24,2,33,0.6317128432582566,right,stripes-2,stripes-8,right,right,0.7392261935676743,0.24782841399519384
KSB1989M,2019-05-20-16-54-24,2,34,0.5690011951005065,right,stripes-2,stripes-4,right,right,0.5398060088191414,0.26395899620183627
KSB1989M,2019-05-20-16-54-24,2,35,0.5300099205906155,left,stripes-4,stripes-4,right,left,0.6613700421116846,0.2957228828920506
KSB1989M,2019-05-20-16-54-24,2,36,0.6102228120481743,right,stripes-8,heavy poles sphere,right,right,0.6625039223986278,0.2718264957904921
KSB1989M,2019-05-20-16-54-24,2,37,0.5005193666157787,left,stripes-8,stripes-2,right,right,0.9637854932364007,0.25586073984595714
KSB1989M,2019-05-20-16-54-24,2,38,0.529045590926223,left,stripes-4,heavy poles sphere,right,right,0.5264261592337789,0.27970705708276
KSB1989M,2019-05-20-16-54-24,2,39,0.6748392352338692,left,heavy poles sphere,stripes-2,right,right,0.8188702434795232,0.2479649398987931
KSB1989M,2019-05-20-16-54-24,2,40,0.5197077058608108,left,stripes-4,stripes-2,right,right,0.5142280828495132,0.2637431670964361
KSB1989M,2019-05-20-16-54-24,2,41,0.6430550681386001,right,stripes-8,stripes-4,right,right,0.5442413902383123,0.2796946173652941
KSB1989M,2019-05-20-16-54-24,2,42,0.6851305763369078,right,stripes-4,stripes-8,right,right,0.6027432065920948,0.27195493587805686
KSB1989M,2019-05-20-16-54-24,2,43,0.5932867520276222,right,heavy poles sphere,stripes-8,right,right,0.33605649124683623,0.2639872965601171
KSB1989M,2019-05-20-16-54-24,2,44,0.6852864826960817,left,stripes-2,heavy poles sphere,right,right,0.5008662708555676,0.2558193777840643
KSB1989M,2019-05-20-16-54-24,2,45,0.6436798287303704,right,heavy poles sphere,heavy poles sphere,right,right,0.5263496549687261,0.2637164217026111
KSB1989M,2019-05-20-16-54-24,2,46,0.5816411315681622,right,heavy poles sphere,stripes-4,right,right,0.6718377537354172,0.2637288614209865
KSB1989M,2019-05-20-16-54-24,2,47,0.5790688917691492,right,stripes-8,stripes-8,right,right,0.6263382415272645,0.25582404267834136
KSB1989M,2019-05-20-16-54-24,3,0,0.5900922098050124,right,stripes-2,heavy poles sphere,right,right,0.4371435048969943,0.24793912748464209
KSB1989M,2019-05-20-16-54-24,3,1,0.5462551185822294,left,stripes-8,heavy poles sphere,right,right,0.37202220365225,0.22382691127722865
KSB1989M,2019-05-20-16-54-24,3,2,0.6475702888402284,right,heavy poles sphere,stripes-4,right,right,0.3308706838456601,0.22383157617105098
KSB1989M,2019-05-20-16-54-24,3,3,0.539066246939147,right,stripes-4,stripes-4,right,right,0.46249564998652204,0.2638240252626929
KSB1989M,2019-05-20-16-54-24,3,4,0.6229753865261198,right,stripes-2,stripes-2,right,right,0.5838988999244066,0.31981457356505416
KSB1989M,2019-05-20-16-54-24,3,5,0.5573575688798812,right,stripes-8,stripes-8,right,right,0.8206513000905034,0.2878432545785472
KSB1989M,2019-05-20-16-54-24,3,6,0.5902395265785088,left,stripes-8,stripes-4,right,right,0.7516351231706722,0.2878793297604716
KSB1989M,2019-05-20-16-54-24,3,7,0.5930880422312287,right,heavy poles sphere,heavy poles sphere,right,right,0.359555118368462,0.22384339390328023
KSB1989M,2019-05-20-16-54-24,3,8,0.632958555386556,left,stripes-8,stripes-2,right,right,0.5663906189597583,0.28784512053607614
KSB1989M,2019-05-20-16-54-24,3,9,0.5648895550599871,left,heavy poles sphere,stripes-2,right,right,0.701769891963977,0.2878050024460208
KSB1989M,2019-05-20-16-54-24,3,10,0.587730617258511,left,stripes-4,stripes-2,right,right,0.6616266112932863,0.295855054895128
KSB1989M,2019-05-20-16-54-24,3,11,0.6255511626039061,left,stripes-4,stripes-8,right,right,0.4368934665667439,0.2798423390154312
KSB1989M,2019-05-20-16-54-24,3,12,0.6723891638360453,right,heavy poles sphere,stripes-8,right,right,0.4935977436844041,0.2718358255788189
KSB1989M,2019-05-20-16-54-24,3,13,0.605354540938787,left,stripes-2,stripes-4,right,right,0.5096972265960176,0.2638479717197697
KSB1989M,2019-05-20-16-54-24,3,14,0.5615684226022276,left,stripes-2,stripes-8,right,right,0.663058733816797,0.2719934990036563
KSB1989M,2019-05-20-16-54-24,3,15,0.5322744076370772,left,stripes-4,heavy poles sphere,right,right,0.3564056927884849,0.30395953110974006
KSB1989M,2019-05-20-16-54-24,3,16,0.6764165778522274,right,stripes-2,stripes-4,right,right,0.6139299339110948,0.2796992822595712
KSB1989M,2019-05-20-16-54-24,3,17,0.6413480471480751,left,stripes-4,stripes-4,right,right,0.3510709197644246,0.23993105908357393
KSB1989M,2019-05-20-16-54-24,3,18,0.5708260355189755,right,stripes-8,heavy poles sphere,right,right,0.3693644579220745,0.2557621550818112
KSB1989M,2019-05-20-16-54-24,3,19,0.6403082536191396,left,stripes-4,stripes-8,right,right,0.406168607314612,0.23190775202829172
KSB1989M,2019-05-20-16-54-24,3,20,0.5793772088389603,left,heavy poles sphere,stripes-2,right,right,0.5256971917647206,0.26382713519205936
KSB1989M,2019-05-20-16-54-24,3,21,0.5575169994817204,right,stripes-2,heavy poles sphere,right,right,0.43897836328778794,0.2716924578298858
KSB1989M,2019-05-20-16-54-24,3,22,0.5374129625112295,right,heavy poles sphere,stripes-8,right,right,0.542743337209231,0.29569302756908655
KSB1989M,2019-05-20-16-54-24,3,23,0.6405097995687511,left,stripes-8,stripes-8,right,right,0.7466838044510951,0.29571883998414705
KSB1989M,2019-05-20-16-54-24,3,24,0.6864117157892065,right,stripes-4,stripes-2,right,right,0.7797939796123501,0.27969959325264426
KSB1989M,2019-05-20-16-54-24,3,25,0.5142441964645001,left,stripes-8,stripes-2,right,right,0.6675836812050875,0.27183427061436305
KSB1989M,2019-05-20-16-54-24,3,26,0.5682593990639733,left,stripes-8,stripes-4,right,right,0.6215865802810185,0.27973473545534944
KSB1989M,2019-05-20-16-54-24,3,27,0.5522382661829311,right,heavy poles sphere,stripes-4,right,right,0.6748142672367976,0.2799623822929789
KSB1989M,2019-05-20-16-54-24,3,28,0.5914195157684446,right,stripes-2,stripes-2,right,right,0.5000810136630207,0.20790282838788698
KSB1989M,2019-05-20-16-54-24,3,29,0.586781018969339,right,stripes-2,stripes-8,right,right,1.7434239763747428,0.3120111385233031
KSB1989M,2019-05-20-16-54-24,3,30,0.6854765724941282,right,heavy poles sphere,heavy poles sphere,right,right,0.8345993337907203,0.27975463900384057
KSB1989M,2019-05-20-16-54-24,3,31,0.6727281733518065,right,stripes-4,heavy poles sphere,right,right,0.9781757589084918,0.2797950680874237
KSB1989M,2019-05-20-16-54-24,3,32,0.6387717099345253,left,stripes-2,stripes-8,left,right,0.8931353593698077,0.2798053308542876
KSB1989M,2019-05-20-16-54-24,3,33,0.5674055494497862,right,stripes-4,stripes-4,right,right,0.822208441778912,0.2878149542202664
KSB1989M,2019-05-20-16-54-24,3,34,0.6465678576370575,right,stripes-8,heavy poles sphere,right,right,0.6392907868030306,0.2798068858191982
KSB1989M,2019-05-20-16-54-24,3,35,0.6359830970039281,left,heavy poles sphere,stripes-2,right,right,0.9125204827732887,0.2877928737207185
KSB1989M,2019-05-20-16-54-24,3,36,0.6529927012435133,left,heavy poles sphere,stripes-4,right,right,0.5016505950698047,0.295718528991074
KSB1989M,2019-05-20-16-54-24,3,37,0.5182985049147907,left,stripes-8,stripes-4,right,right,0.45646331978150556,0.2476912661049937
KSB1989M,2019-05-20-16-54-24,3,38,0.6314478795527545,right,stripes-4,stripes-8,right,right,0.4177474967400485,0.26379883483377853
KSB1989M,2019-05-20-16-54-24,3,39,0.5993182333481022,left,heavy poles sphere,stripes-8,right,right,0.3905611152458732,0.263820293347635
KSB1989M,2019-05-20-16-54-24,3,40,0.5462409650957721,right,stripes-2,stripes-2,right,right,0.4061530576673249,0.29568929565357394
KSB1989M,2019-05-20-16-54-24,3,41,0.5284386684549627,left,stripes-2,stripes-4,right,right,0.5962543387399819,0.27181001316421316
KSB1989M,2019-05-20-16-54-24,3,42,0.6789317611954956,left,stripes-8,stripes-8,right,right,0.5575394486777441,0.2718283617482484
KSB1989M,2019-05-20-16-54-24,3,43,0.5531437523529732,right,stripes-2,heavy poles sphere,right,right,0.5902674135058987,0.2718087691923756
KSB1989M,2019-05-20-16-54-24,3,44,0.6291681845690344,right,stripes-8,stripes-2,right,right,0.4656823947202611,0.26373041638544237
KSB1989M,2019-05-20-16-54-24,3,45,0.651434903661293,left,stripes-4,stripes-2,right,right,0.36957500014796096,0.2638501486703717
KSB1989M,2019-05-20-16-54-24,3,46,0.5904692147024619,left,heavy poles sphere,heavy poles sphere,right,right,0.28985040306270093,0.26379354795381005
KSB1989M,2019-05-20-16-54-24,3,47,0.6355530825420925,left,stripes-4,heavy poles sphere,right,right,0.41069262172368326,0.2798047088685962
KSB1989M,2019-05-20-16-54-24,4,0,0.5977604250946952,right,stripes-8,stripes-4,right,right,0.5568742347627449,0.25581844480484506
KSB1989M,2019-05-20-16-54-24,4,1,0.527612891610885,right,heavy poles sphere,heavy poles sphere,right,right,0.288993928484615,0.2558504770786385
KSB1989M,2019-05-20-16-54-24,4,2,0.6294801263478779,left,heavy poles sphere,stripes-8,right,right,0.3306029189175206,0.231813210171822
KSB1989M,2019-05-20-16-54-24,4,3,0.5653600147447269,left,stripes-8,stripes-8,right,right,0.6128343057566781,0.2718448443743
KSB1989M,2019-05-20-16-54-24,4,4,0.5957540837923926,right,stripes-8,stripes-2,right,right,0.512801869192117,0.2638252692340757
KSB1989M,2019-05-20-16-54-24,4,5,0.690239019177839,right,stripes-4,stripes-2,right,right,0.43678213109160424,0.26380536568558455
KSB1989M,2019-05-20-16-54-24,4,6,0.556129769105838,right,heavy poles sphere,stripes-2,right,right,0.4109722043831425,0.26384081888181754
KSB1989M,2019-05-20-16-54-24,4,7,0.5427812001536622,left,stripes-2,stripes-4,right,right,0.36923290790537067,0.2878513403948091
KSB1989M,2019-05-20-16-54-24,4,8,0.611089838024052,left,stripes-2,stripes-2,right,right,0.3574151758962216,0.2636616869435784
KSB1989M,2019-05-20-16-54-24,4,9,0.5068972260261664,right,stripes-8,heavy poles sphere,right,right,0.39290227015499113,0.27979942198862773
KSB1989M,2019-05-20-16-54-24,4,10,0.6626324125922213,left,stripes-4,stripes-8,right,right,0.38643423883104333,0.24769717497110832
KSB1989M,2019-05-20-16-54-24,4,11,0.6839195750584623,left,stripes-2,stripes-8,right,right,0.43642573317356437,0.27193036743528864
KSB1989M,2019-05-20-16-54-24,4,12,0.6659151159675496,left,stripes-2,heavy poles sphere,right,right,0.4458015485583928,0.2799592723636124
KSB1989M,2019-05-20-16-54-24,4,13,0.6811740317718245,right,heavy poles sphere,stripes-4,right,right,0.5418756668855167,0.2797928911368217
KSB1989M,2019-05-20-16-54-24,4,14,0.588512727002865,left,stripes-4,heavy poles sphere,right,right,0.8938792545000069,0.2799645592435809
KSB1989M,2019-05-20-16-54-24,4,15,0.5984997581530065,right,stripes-4,stripes-4,right,right,0.4936372397883133,0.2878003375517437
KSB1989M,2019-05-20-16-54-24,4,16,0.6012697384729848,left,stripes-4,stripes-2,right,right,0.4777144008708092,0.2878283269169515
KSB1989M,2019-05-20-16-54-24,4,17,0.5574305379914523,left,heavy poles sphere,stripes-2,right,right,0.44113261143593263,0.26382931214266137
KSB1989M,2019-05-20-16-54-24,4,18,0.5264315240430946,right,stripes-8,heavy poles sphere,right,right,0.43200683438135457,0.27982678936768934
KSB1989M,2019-05-20-16-54-24,4,19,0.5610898028686844,left,stripes-8,stripes-2,right,right,0.5796199479582356,0.25581098097427457
KSB1989M,2019-05-20-16-54-24,4,20,0.6117700237117145,left,heavy poles sphere,heavy poles sphere,right,right,0.5387865739367044,0.2319615538076505
KSB1989M,2019-05-20-16-54-24,4,21,0.6255566832403018,left,stripes-8,stripes-8,right,right,0.5302184072370437,0.2478035345588978
KSB1989M,2019-05-20-16-54-24,4,22,0.5173250114141688,right,stripes-8,stripes-4,right,right,0.7896704936420065,0.271985724179558
KSB1989M,2019-05-20-16-54-24,4,23,0.6789238597056886,right,stripes-2,stripes-2,right,right,0.558721532871914,0.2799353259065356
KSB1989M,2019-05-20-16-54-24,4,24,0.6315283392171301,left,stripes-4,heavy poles sphere,right,right,0.532180461743792,0.2636753706337913
KSB1989M,2019-05-20-16-54-24,4,25,0.508325733489581,left,stripes-2,stripes-4,right,right,0.7508588847731517,0.2638134515023012
KSB1989M,2019-05-20-16-54-24,4,26,0.619078087931862,right,stripes-2,stripes-8,right,right,0.42069819782682316,0.271836136571892
KSB1989M,2019-05-20-16-54-24,4,27,0.5974245964646892,left,heavy poles sphere,stripes-4,right,right,0.54562717481258,0.2238340641151808
KSB1989M,2019-05-20-16-54-24,4,28,0.648609082790271,left,stripes-4,stripes-8,right,right,0.510893305472564,0.2797764085103154
KSB1989M,2019-05-20-16-54-24,4,29,0.6726736641994926,right,heavy poles sphere,stripes-8,right,right,0.4128341191603795,0.26381998235456194
KSB1989M,2019-05-20-16-54-24,4,30,0.5577696755168638,right,stripes-4,stripes-4,right,right,0.45835726683253597,0.2718495092685771
KSB1989M,2019-05-20-16-54-24,4,31,0.6621181272476562,left,stripes-2,heavy poles sphere,right,right,0.4190275437122182,0.2636946521961363
KSB1989M,2019-05-20-16-54-24,4,32,0.5289894323845332,left,stripes-2,stripes-4,right,right,0.5380666252631272,0.28785258436710137
KSB1989M,2019-05-20-16-54-24,4,33,0.5507839465970029,right,stripes-4,stripes-8,right,right,0.3380166797956008,0.2718392465017132
KSB1989M,2019-05-20-16-54-24,4,34,0.5920021015428573,right,stripes-8,stripes-2,right,right,0.8649189692323489,0.2637413011384524
KSB1989M,2019-05-20-16-54-24,4,35,0.6631316878989123,right,heavy poles sphere,stripes-2,right,right,0.7052396402805243,0.2719558688568213
KSB1989M,2019-05-20-16-54-24,4,36,0.5338777186351285,left,heavy poles sphere,heavy poles sphere,right,right,0.4300149245514149,0.22379518999650827
KSB1989M,2019-05-20-16-54-24,4,37,0.5892730699284691,left,stripes-8,stripes-4,right,right,0.7868118464675717,0.2558548309798425
KSB1989M,2019-05-20-16-54-24,4,38,0.6284002070308031,right,stripes-4,stripes-2,right,right,0.3825241245003781,0.2638171834178138
KSB1989M,2019-05-20-16-54-24,4,39,0.5518575255996956,left,stripes-2,stripes-2,right,left,0.5580121579582737,0.34385868231674976
KSB1989M,2019-05-20-16-54-24,4,40,0.5493551382882325,right,stripes-2,heavy poles sphere,right,right,0.4441946479978469,0.2797331804908936
KSB1989M,2019-05-20-16-54-24,4,41,0.5746475387810261,right,stripes-4,heavy poles sphere,right,right,0.30434889428033784,0.2878109113116807
KSB1989M,2019-05-20-16-54-24,4,42,0.5125254651608993,right,stripes-8,heavy poles sphere,right,right,0.4045047950448861,0.2557972972845164
KSB1989M,2019-05-20-16-54-24,4,43,0.6571132310878262,right,stripes-8,stripes-8,right,right,0.31857495567555816,0.27194653906826716
KSB1989M,2019-05-20-16-54-24,4,44,0.5142952276467194,right,heavy poles sphere,stripes-4,right,right,0.28288478302192743,0.2478293469739583
KSB1989M,2019-05-20-16-54-24,4,45,0.6571620408808565,left,stripes-2,stripes-8,right,right,0.4025530033054565,0.27970332516770213
KSB1989M,2019-05-20-16-54-24,4,46,0.6568861793159697,left,stripes-4,stripes-4,right,right,0.40378702332191097,0.2558943270846612
KSB1989M,2019-05-20-16-54-24,4,47,0.5167888110270102,right,heavy poles sphere,stripes-8,right,right,0.3892412611758118,0.2638426848393465
KSB1989M,2019-05-20-16-54-24,5,0,0.5035420524794271,left,heavy poles sphere,stripes-8,right,right,0.30339259096626847,0.29597074427147163
KSB1989M,2019-05-20-16-54-24,5,1,0.6783206418479133,left,heavy poles sphere,stripes-4,right,right,0.4687640238385029,0.30384042081095686
KSB1989M,2019-05-20-16-54-24,5,2,0.5264229332561045,right,stripes-4,heavy poles sphere,right,right,0.32113131770529435,0.25582995154400123
KSB1989M,2019-05-20-16-54-24,5,3,0.6785932499946404,left,stripes-2,stripes-4,left,right,0.46980336226897634,0.2638560575360316
KSB1989M,2019-05-20-16-54-24,5,4,0.5398016681977897,right,heavy poles sphere,heavy poles sphere,right,right,0.43597230545583443,0.27184173444493354
KSB1989M,2019-05-20-16-54-24,5,5,0.5883804251752363,right,heavy poles sphere,stripes-2,right,right,0.6249518349673053,0.27971141098441876
KSB1989M,2019-05-20-16-54-24,5,6,0.6229995906145742,left,stripes-2,heavy poles sphere,right,right,0.748187455353218,0.2636915422672246
KSB1989M,2019-05-20-16-54-24,5,7,0.6885711715267951,right,stripes-2,stripes-2,right,right,0.7345025216864087,0.30397103784889623
KSB1989M,2019-05-20-16-54-24,5,8,0.5990639390157568,left,stripes-4,stripes-2,right,right,0.48367613567643275,0.271974839426548
KSB1989M,2019-05-20-16-54-24,5,9,0.6667594946660141,left,stripes-4,stripes-4,right,right,0.4978449743694,0.31982390335360833
KSB1989M,2019-05-20-16-54-24,5,10,0.6072453012775291,left,stripes-4,stripes-8,right,right,0.639705029409015,0.27983954007868306
KSB1989M,2019-05-20-16-54-24,5,11,0.5937455560340514,right,stripes-8,stripes-8,right,right,0.6742678526275085,0.2799810418700872
KSB1989M,2019-05-20-16-54-24,5,12,0.5220985916714943,right,stripes-2,stripes-8,right,right,0.3904168145177209,0.2558144018967141
KSB1989M,2019-05-20-16-54-24,5,13,0.5249019799883522,left,stripes-8,stripes-2,right,right,0.42250973174668616,0.2078089085175634
KSB1989M,2019-05-20-16-54-24,5,14,0.6513235135308052,right,stripes-8,heavy poles sphere,right,right,0.35546245117802755,0.24771210263270405
KSB1989M,2019-05-20-16-54-24,5,15,0.6410779530100833,right,stripes-8,stripes-4,right,right,0.536937098877388,0.2637590277363415
KSB1989M,2019-05-20-16-54-24,5,16,0.5826449060364961,right,stripes-2,stripes-8,right,right,0.656893920616767,0.2878211740789993
KSB1989M,2019-05-20-16-54-24,5,17,0.5666167485753061,right,stripes-2,stripes-4,right,right,0.6275915431065187,0.28781930812192513
KSB1989M,2019-05-20-16-54-24,5,18,0.6406968473710442,left,stripes-4,heavy poles sphere,right,right,0.40540263168441015,0.27996953513093104
KSB1989M,2019-05-20-16-54-24,5,19,0.6077075621103424,left,stripes-8,stripes-4,right,right,0.45688378224622284,0.3117903335310075
KSB1989M,2019-05-20-16-54-24,5,20,0.6009979098485657,right,stripes-2,heavy poles sphere,right,right,0.6424318155741275,0.28783983365610766
KSB1989M,2019-05-20-16-54-24,5,21,0.5927833836902474,left,stripes-8,stripes-8,right,right,0.42824630765835536,0.2558346164382783
KSB1989M,2019-05-20-16-54-24,5,22,0.602144351606744,left,stripes-2,stripes-2,right,right,0.8556336527958592,0.2878547613177034
KSB1989M,2019-05-20-16-54-24,5,23,0.5972588370341023,right,heavy poles sphere,stripes-4,right,right,0.4414376955173793,0.2638168724247407
KSB1989M,2019-05-20-16-54-24,5,24,0.6164591327944563,left,stripes-8,stripes-2,right,right,0.4356697093180628,0.27966289608457373
KSB1989M,2019-05-20-16-54-24,5,25,0.6128211291781136,left,heavy poles sphere,stripes-2,right,right,0.4789969357866539,0.27993408193469804
KSB1989M,2019-05-20-16-54-24,5,26,0.5898260170299587,right,heavy poles sphere,heavy poles sphere,right,right,0.4904327684562304,0.2798364301493166
KSB1989M,2019-05-20-16-54-24,5,27,0.5251040531698752,left,stripes-4,stripes-2,right,right,0.5979041563273313,0.3599367067154162
KSB1989M,2019-05-20-16-54-24,5,28,0.6970672324352172,left,stripes-4,stripes-8,right,right,0.4024830298926645,0.2637142447520091
KSB1989M,2019-05-20-16-54-24,5,29,0.6416801671992327,right,stripes-8,heavy poles sphere,right,right,0.598519922363721,0.2958286204943761
KSB1989M,2019-05-20-16-54-24,5,30,0.6814692366833657,left,stripes-4,stripes-4,right,right,0.4064121147921469,0.26383397703693845
KSB1989M,2019-05-20-16-54-24,5,31,0.6469214757300357,left,heavy poles sphere,stripes-8,right,right,0.36999857254249946,0.2957123091318863
KSB1989M,2019-05-20-16-54-24,5,32,0.5631248544750107,left,stripes-2,stripes-8,right,right,0.6479774418153283,0.2558144018967141
KSB1989M,2019-05-20-16-54-24,5,33,0.6622578207828793,right,stripes-8,stripes-8,right,right,0.2965998830045464,0.23981536970677553
KSB1989M,2019-05-20-16-54-24,5,34,0.5997440454286339,right,heavy poles sphere,stripes-4,right,right,0.43551483482997355,0.26387689406374193
KSB1989M,2019-05-20-16-54-24,5,35,0.6244789759231114,right,stripes-2,stripes-2,right,right,0.4689764320210088,0.3118326285716648
KSB1989M,2019-05-20-16-54-24,5,36,0.565147412872787,right,heavy poles sphere,heavy poles sphere,right,right,0.4077260599960937,0.26382060434025334
KSB1989M,2019-05-20-16-54-24,5,37,0.601839748115701,left,heavy poles sphere,stripes-8,right,right,0.3165718500999901,0.25581160295996597
KSB1989M,2019-05-20-16-54-24,5,38,0.5354249947070862,right,stripes-2,stripes-4,right,right,0.38348758065239963,0.24781752924172906
KSB1989M,2019-05-20-16-54-24,5,39,0.6613662170727141,right,stripes-2,heavy poles sphere,right,right,0.3163211897845031,0.26380629866480376
KSB1989M,2019-05-20-16-54-24,5,40,0.6624491778854594,left,stripes-4,heavy poles sphere,right,right,0.3871538765115474,0.27184608834613755
KSB1989M,2019-05-20-16-54-24,5,41,0.699513412435331,right,stripes-4,stripes-2,right,right,0.40385202084735283,0.3198630884648992
KSB1989M,2019-05-20-16-54-24,5,42,0.5881008478927753,left,stripes-4,stripes-8,right,right,0.31882126209029593,0.2796541882821657
KSB1989M,2019-05-20-16-54-24,5,43,0.6677083054307075,left,stripes-8,heavy poles sphere,right,right,0.3083152983340369,0.2878351687618306
KSB1989M,2019-05-20-16-54-24,5,44,0.6929578261487179,left,stripes-8,stripes-2,right,right,0.46359780899274483,0.32796569872198233
KSB1989M,2019-05-20-16-54-24,5,45,0.5102930623143841,left,stripes-4,stripes-4,right,right,0.4265003932505351,0.2878609811764363
KSB1989M,2019-05-20-16-54-24,5,46,0.592387691943269,right,stripes-8,stripes-4,right,right,0.3011864069958392,0.2878214850720724
KSB1989M,2019-05-20-16-54-24,5,47,0.5354079434918418,left,heavy poles sphere,stripes-2,right,right,0.7207955075200516,0.27997730995411985
KSB1989M,2019-05-20-16-54-24,6,0,0.6787030416847869,left,stripes-8,stripes-8,right,right,0.37746458023548257,0.2878357907479767
KSB1989M,2019-05-20-16-54-24,6,1,0.5898554628123246,right,stripes-4,stripes-8,right,right,0.3502719788821196,0.28784232159978274
KSB1989M,2019-05-20-16-54-24,6,2,0.6445479103208706,right,stripes-8,heavy poles sphere,right,right,0.33113689380843425,0.2558324394876763
KSB1989M,2019-05-20-16-54-24,6,3,0.6387204052968971,left,stripes-4,stripes-4,right,right,0.34528862788965853,0.2639216770485291
KSB1989M,2019-05-20-16-54-24,6,4,0.6285704442313667,left,heavy poles sphere,stripes-4,right,right,0.3201168587097527,0.30386125733821245
KSB1989M,2019-05-20-16-54-24,6,5,0.6678483934286512,left,heavy poles sphere,heavy poles sphere,right,right,0.2864624458907201,0.2637241965262547
KSB1989M,2019-05-20-16-54-24,6,6,0.5760145212118482,right,stripes-2,stripes-2,right,right,0.3205646885544411,0.2718417344453883
KSB1989M,2019-05-20-16-54-24,6,7,0.5597381111146118,left,stripes-8,stripes-2,right,right,1.6334326126489032,0.34382260713437063
KSB1989M,2019-05-20-16-54-24,6,8,0.510697290404526,left,heavy poles sphere,stripes-8,right,right,0.48537260220518874,0.3277396068492635
KSB1989M,2019-05-20-16-54-24,6,9,0.6632778094720383,right,stripes-2,stripes-8,right,right,0.3452469548346926,0.3037919059111118
KSB1989M,2019-05-20-16-54-24,6,10,0.5550192888563993,right,stripes-2,stripes-4,right,right,0.6000907477423425,0.2958052960234454
KSB1989M,2019-05-20-16-54-24,6,11,0.5814119058100427,left,heavy poles sphere,stripes-2,right,right,0.8294007756790052,0.28786471309194894
KSB1989M,2019-05-20-16-54-24,6,12,0.5468772784843836,left,stripes-4,heavy poles sphere,right,right,0.30728497869858984,0.27181250110788824
KSB1989M,2019-05-20-16-54-24,6,13,0.6019617448297835,left,stripes-8,stripes-4,right,right,0.47547245271107386,0.2319758594835548
KSB1989M,2019-05-20-16-54-24,6,14,0.5040234301186103,left,stripes-4,stripes-2,right,right,0.506526653495257,0.31171600621610196
KSB1989M,2019-05-20-16-54-24,6,15,0.633759019496783,left,stripes-2,heavy poles sphere,left,right,0.8884763740215931,0.255836482396262
KSB1989M,2019-05-20-16-54-24,6,16,0.5673593249328069,left,stripes-8,stripes-8,right,right,1.3867449207855316,0.30394864635673
KSB1989M,2019-05-20-16-54-24,6,17,0.6272906681824977,left,stripes-2,stripes-8,right,right,0.6601951107554669,0.2956973814707453
KSB1989M,2019-05-20-16-54-24,6,18,0.6348857128085519,left,heavy poles sphere,stripes-2,right,right,0.7006064673469155,0.28782272904390993
KSB1989M,2019-05-20-16-54-24,6,19,0.573646196698997,left,stripes-4,heavy poles sphere,right,right,0.8298570023325738,0.27185883905713126
KSB1989M,2019-05-20-16-54-24,6,20,0.6764827334648932,left,stripes-4,stripes-2,right,left,0.605579151281745,0.3197959139879458
KSB1989M,2019-05-20-16-54-24,6,21,0.5697840395311929,left,stripes-2,heavy poles sphere,left,right,0.40237667030442026,0.27169214683681275
KSB1989M,2019-05-20-16-54-24,6,22,0.5560970151766147,right,stripes-4,stripes-8,right,right,0.544420833168715,0.29583173042374256
KSB1989M,2019-05-20-16-54-24,6,23,0.6257895749252669,left,stripes-8,stripes-4,right,right,0.38039506678114776,0.27983269823380397
KSB1989M,2019-05-20-16-54-24,6,24,0.6858022872407028,left,heavy poles sphere,stripes-8,right,right,0.8232860323428213,0.30373343923702123
KSB1989M,2019-05-20-16-54-24,6,25,0.6710657656202015,right,heavy poles sphere,heavy poles sphere,right,right,0.7202248354615222,0.24780944342501243
KSB1989M,2019-05-20-16-54-24,6,26,0.5884365702640095,right,stripes-8,stripes-2,right,right,0.6241099770577421,0.28783579074752197
KSB1989M,2019-05-20-16-54-24,6,27,0.6561384959431678,left,stripes-2,stripes-4,right,right,0.6719988480817847,0.2639593071944546
KSB1989M,2019-05-20-16-54-24,6,28,0.6212508687729309,right,stripes-2,stripes-2,right,right,0.8319229284838912,0.2719095309075783
KSB1989M,2019-05-20-16-54-24,6,29,0.522200412152212,left,stripes-8,heavy poles sphere,right,right,0.8230779780606099,0.2638252692340757
KSB1989M,2019-05-20-16-54-24,6,30,0.5326675960896446,left,heavy poles sphere,stripes-4,right,right,0.6623226135102414,0.279826478375071
KSB1989M,2019-05-20-16-54-24,6,31,0.5958861399434963,left,stripes-4,stripes-4,right,right,0.5995409122110686,0.27979320212944003
KSB1989M,2019-05-20-16-54-24,6,32,0.5573455884220588,left,stripes-2,stripes-8,right,right,0.5168948473756245,0.2958385722690764
KSB1989M,2019-05-20-16-54-24,6,33,0.5261299013328866,right,heavy poles sphere,stripes-8,right,right,0.4076691482869137,0.2638150064672118
KSB1989M,2019-05-20-16-54-24,6,34,0.629317249666341,left,stripes-4,heavy poles sphere,right,right,0.29978693873135853,0.2878280159238784
KSB1989M,2019-05-20-16-54-24,6,35,0.5836104103565268,right,stripes-8,stripes-4,right,right,0.396030237222476,0.2878177531570145
KSB1989M,2019-05-20-16-54-24,6,36,0.524102666366457,right,heavy poles sphere,stripes-2,right,right,0.40420966273723025,0.34397499367923956
KSB1989M,2019-05-20-16-54-24,6,37,0.6887424751403881,left,stripes-2,stripes-4,right,right,0.3855665685068743,0.335825423487222
KSB1989M,2019-05-20-16-54-24,6,38,0.6028514293841024,left,heavy poles sphere,stripes-4,right,right,0.3730139601625524,0.2959514627086719
KSB1989M,2019-05-20-16-54-24,6,39,0.6451410363028508,right,stripes-2,heavy poles sphere,right,right,0.3292068715759342,0.2878168201777953
KSB1989M,2019-05-20-16-54-24,6,40,0.5583745284418994,left,stripes-4,stripes-4,right,left,0.44940160291980646,0.32796911964396713
KSB1989M,2019-05-20-16-54-24,6,41,0.5657510212661419,right,stripes-2,stripes-2,right,right,0.3860974334684215,0.31180308424154646
KSB1989M,2019-05-20-16-54-24,6,42,0.6270865722320286,left,stripes-8,stripes-8,right,right,0.42834022752867895,0.2716741092463053
KSB1989M,2019-05-20-16-54-24,6,43,0.5671765414987051,right,stripes-4,stripes-8,right,right,0.6730332106258174,0.32780273841717644
KSB1989M,2019-05-20-16-54-24,6,44,0.6631987005943484,right,heavy poles sphere,heavy poles sphere,right,right,0.5515043195364342,0.2719543138919107
KSB1989M,2019-05-20-16-54-24,6,45,0.5014478061486681,left,stripes-8,stripes-2,right,right,0.4334629033614874,0.26394562350515116
KSB1989M,2019-05-20-16-54-24,6,46,0.58236740374743,left,stripes-4,stripes-2,right,right,0.4137916664462864,0.2877801230101795
KSB1989M,2019-05-20-16-54-24,6,47,0.5613195307875865,left,stripes-8,heavy poles sphere,right,right,0.3152616368120107,0.2878236620226744
KSB1989M,2019-05-20-16-54-24,7,0,0.6861892465782746,left,heavy poles sphere,stripes-2,right,right,0.38756376521632774,0.27985540071904325
KSB1989M,2019-05-20-16-54-24,7,1,0.6235409500308311,left,stripes-8,stripes-2,right,left,0.4063716857090185,0.31980120086836905
KSB1989M,2019-05-20-16-54-24,7,2,0.5896646099978436,left,stripes-2,heavy poles sphere,left,right,0.6099333635411313,0.25580134019264733
KSB1989M,2019-05-20-16-54-24,7,3,0.625502702867176,right,stripes-8,heavy poles sphere,right,right,0.3506028753786268,0.3037138466811484
KSB1989M,2019-05-20-16-54-24,7,4,0.6593678473018457,left,stripes-2,stripes-8,right,right,0.3693865384216224,0.28779318471379156
KSB1989M,2019-05-20-16-54-24,7,5,0.5193392243881502,right,stripes-4,stripes-8,right,right,0.6974707254566965,0.287820863086381
KSB1989M,2019-05-20-16-54-24,7,6,0.6351736330322425,left,heavy poles sphere,stripes-8,right,right,0.9446535180923092,0.30394678039874634
KSB1989M,2019-05-20-16-54-24,7,7,0.511938615113161,right,heavy poles sphere,stripes-4,right,right,0.8825177491448812,0.2957119981388132
KSB1989M,2019-05-20-16-54-24,7,8,0.5703720944451796,right,stripes-2,stripes-2,right,right,0.5875197908139853,0.3198127076070705
KSB1989M,2019-05-20-16-54-24,7,9,0.600435938001874,right,heavy poles sphere,heavy poles sphere,right,right,0.40811386820178086,0.2799937925810809
KSB1989M,2019-05-20-16-54-24,7,10,0.6926582092364184,right,stripes-2,stripes-4,right,right,0.48788542522243006,0.2958597197889503
KSB1989M,2019-05-20-16-54-24,7,11,0.6721697782774108,right,stripes-4,stripes-4,right,right,0.3728513108508196,0.28780624641785835
KSB1989M,2019-05-20-16-54-24,7,12,0.5753110026033449,left,stripes-8,stripes-8,right,right,0.36238888610705544,0.3117890895587152
KSB1989M,2019-05-20-16-54-24,7,13,0.5035821324096456,left,stripes-4,stripes-2,right,right,0.7147143514230265,0.2878581822401429
KSB1989M,2019-05-20-16-54-24,7,14,0.5850149877251887,right,stripes-8,stripes-4,right,right,0.38589311110172275,0.31985717959878457
KSB1989M,2019-05-20-16-54-24,7,15,0.6974759568788697,left,stripes-4,heavy poles sphere,right,right,0.41785665526458615,0.3198562466200201
KSB1989M,2019-05-20-16-54-24,7,16,0.6198399228615167,right,heavy poles sphere,stripes-8,right,right,0.41194032542944115,0.25580445012246855
KSB1989M,2019-05-20-16-54-24,7,17,0.5577226147401685,left,stripes-8,stripes-2,right,right,0.794230272239929,0.2957014243784215
KSB1989M,2019-05-20-16-54-24,7,18,0.5858859697753706,left,stripes-2,stripes-2,right,right,0.8532091517763547,0.2718656809015556
KSB1989M,2019-05-20-16-54-24,7,19,0.5429282955297595,right,stripes-2,heavy poles sphere,right,right,0.6264868961566208,0.32773245401131135
KSB1989M,2019-05-20-16-54-24,7,20,0.5463696750330552,left,stripes-8,stripes-4,right,right,0.4136576284859075,0.32784783239458193
KSB1989M,2019-05-20-16-54-24,7,21,0.6375236579832733,left,stripes-4,stripes-4,right,left,0.7579479690134576,0.3275016972438607
KSB1989M,2019-05-20-16-54-24,7,22,0.6398523346806884,left,stripes-8,stripes-8,right,right,0.5114711303690456,0.31181894488190665
KSB1989M,2019-05-20-16-54-24,7,23,0.5337224303936866,left,stripes-2,stripes-4,right,right,0.6563910450204276,0.3276335582536376
KSB1989M,2019-05-20-16-54-24,7,24,0.5805461072847922,right,stripes-8,heavy poles sphere,right,right,0.6101610103787607,0.3118251647406396
KSB1989M,2019-05-20-16-54-24,7,25,0.5700448312934697,left,heavy poles sphere,heavy poles sphere,right,right,0.5921112906921735,0.29587371447178157
KSB1989M,2019-05-20-16-54-24,7,26,0.5837775418502587,left,heavy poles sphere,stripes-4,right,right,0.6214736898409683,0.2878283269169515
KSB1989M,2019-05-20-16-54-24,7,27,0.6441471246607771,left,stripes-4,stripes-2,right,right,0.6533688155550408,0.31982887924050374
KSB1989M,2019-05-20-16-54-24,7,28,0.5835191088496868,right,heavy poles sphere,stripes-2,right,right,0.5113053711279463,0.2878280159238784
KSB1989M,2019-05-20-16-54-24,7,29,0.5416976228719615,right,stripes-4,heavy poles sphere,right,right,0.3860887256660135,0.3198127076070705
KSB1989M,2019-05-20-16-54-24,7,30,0.6624879913121045,right,stripes-4,stripes-8,right,right,0.6420919002816845,0.23184773038883577
KSB1989M,2019-05-20-16-54-24,7,31,0.6240794823837718,left,stripes-2,stripes-8,right,right,0.6454176588640621,0.2638034997280556
KSB1989M,2019-05-20-16-54-24,7,32,0.6111621639812093,left,stripes-8,stripes-2,right,right,1.007450147052623,0.271689036907901
KSB1989M,2019-05-20-16-54-24,7,33,0.5394799354463319,left,stripes-8,heavy poles sphere,right,right,0.3736658013804117,0.27187252274688944
KSB1989M,2019-05-20-16-54-24,7,34,0.6203417759211528,left,stripes-4,stripes-4,right,right,0.5225188438403165,0.30382300520568606
KSB1989M,2019-05-20-16-54-24,7,35,0.5829953988756894,left,heavy poles sphere,stripes-4,right,right,0.738665473283163,0.2797030141750838
KSB1989M,2019-05-20-16-54-24,7,36,0.5322598054414163,left,stripes-2,stripes-8,right,right,0.7077823186200476,0.3038503725852024
KSB1989M,2019-05-20-16-54-24,7,37,0.5063021662753698,left,heavy poles sphere,stripes-8,right,right,0.5111119335147123,0.29597665313758625
KSB1989M,2019-05-20-16-54-24,7,38,0.6826240313762789,right,stripes-2,stripes-4,right,right,0.6983483475542016,0.3518540000068242
KSB1989M,2019-05-20-16-54-24,7,39,0.5035472694131471,right,stripes-4,stripes-8,right,right,0.8989095654278572,0.3038534825145689
KSB1989M,2019-05-20-16-54-24,7,40,0.592949614629383,left,heavy poles sphere,stripes-2,right,right,0.48331631683595333,0.3838007505501082
KSB1989M,2019-05-20-16-54-24,7,41,0.5611916907711212,left,stripes-8,stripes-4,right,right,0.7613265963964295,0.2878376567050509
KSB1989M,2019-05-20-16-54-24,7,42,0.6931457041756044,left,stripes-4,stripes-2,right,left,0.3384231475783963,0.33581889263496123
KSB1989M,2019-05-20-16-54-24,7,43,0.5302164611202997,left,stripes-2,heavy poles sphere,right,right,0.3386977543514149,0.27197204048979984
KSB1989M,2019-05-20-16-54-24,7,44,0.5747466515089183,left,stripes-8,stripes-8,right,right,0.4741924057389042,0.30395517720853604
KSB1989M,2019-05-20-16-54-24,7,45,0.5938987857428566,left,stripes-2,stripes-2,right,right,0.6262480535729082,0.3517824716286668
KSB1989M,2019-05-20-16-54-24,7,46,0.6872280756270921,left,heavy poles sphere,heavy poles sphere,right,right,0.6967653934511873,0.2798115507134753
KSB1989M,2019-05-20-16-54-24,7,47,0.638834556581184,left,stripes-4,heavy poles sphere,right,right,0.6559593868087177,0.27978791524947155
KSB1989M,2019-05-20-16-54-24,8,0,0.639359605464028,right,stripes-8,stripes-4,right,right,0.5052926334792573,0.23981412573539274
KSB1989M,2019-05-20-16-54-24,8,1,0.5004436680022901,right,stripes-2,stripes-4,right,right,0.3587555555000108,0.303957043166065
KSB1989M,2019-05-20-16-54-24,8,2,0.5904053754710138,left,heavy poles sphere,stripes-2,right,right,0.40487860856774205,0.29593498008216557
KSB1989M,2019-05-20-16-54-24,8,3,0.5142115735599514,left,heavy poles sphere,stripes-8,right,right,0.37196218201370357,0.2956952045201433
KSB1989M,2019-05-20-16-54-24,8,4,0.6675431235021297,left,stripes-4,stripes-2,right,right,1.0771812967595906,0.2638053656860393
KSB1989M,2019-05-20-16-54-24,8,5,0.6052886988664903,right,heavy poles sphere,stripes-4,right,right,0.6554941413592132,0.2399649573148963
KSB1989M,2019-05-20-16-54-24,8,6,0.6478078915408096,right,stripes-4,heavy poles sphere,right,right,0.6900703372748467,0.30381989527586484
KSB1989M,2019-05-20-16-54-24,8,7,0.5916138958886626,right,stripes-2,stripes-2,right,right,0.561321122921072,0.35979862584690636
KSB1989M,2019-05-20-16-54-24,8,8,0.5046615199707977,left,stripes-8,stripes-2,right,right,0.43930583886140084,0.30382518215628807
KSB1989M,2019-05-20-16-54-24,8,9,0.5882114719925552,right,stripes-4,stripes-4,right,right,0.4495042305925381,0.2878385896842701
KSB1989M,2019-05-20-16-54-24,8,10,0.6610983561078447,right,stripes-2,heavy poles sphere,right,right,0.6012874486045803,0.2718585280640582
KSB1989M,2019-05-20-16-54-24,8,11,0.5676719035642158,right,stripes-8,heavy poles sphere,right,right,0.520193238578031,0.27994869860367544
KSB1989M,2019-05-20-16-54-24,8,12,0.5373232513461021,left,heavy poles sphere,heavy poles sphere,right,right,0.7564029560503513,0.4637001256724034
KSB1989M,2019-05-20-16-54-24,8,13,0.5056505993214708,left,stripes-8,stripes-8,right,right,0.742143307416427,0.2877994045725245
KSB1989M,2019-05-20-16-54-24,8,14,0.602249893572766,right,stripes-2,stripes-8,right,right,0.8438019261034242,0.2798326982342587
KSB1989M,2019-05-20-16-54-24,8,15,0.5288251595427194,left,stripes-4,stripes-8,right,right,0.5443480608187201,0.32780211643148505
KSB1989M,2019-05-20-16-54-24,8,16,0.6350680303507383,left,stripes-8,heavy poles sphere,right,right,0.8036813479179727,0.31981550654381863
KSB1989M,2019-05-20-16-54-24,8,17,0.5628558383017733,right,stripes-2,heavy poles sphere,right,right,0.5361375360093916,0.3038332679730047
KSB1989M,2019-05-20-16-54-24,8,18,0.6122177093502804,left,heavy poles sphere,stripes-8,right,right,0.5981308701861963,0.36783623857763814
KSB1989M,2019-05-20-16-54-24,8,19,0.5380752940295709,right,stripes-2,stripes-8,right,right,0.48884514945848423,0.3037458789549419
KSB1989M,2019-05-20-16-54-24,8,20,0.6180402161154123,left,stripes-4,heavy poles sphere,right,right,1.5847438677633363,0.2798485588746189
KSB1989M,2019-05-20-16-54-24,8,21,0.5908279467670322,right,heavy poles sphere,stripes-2,right,right,0.47796412820753176,0.3118646608450035
KSB1989M,2019-05-20-16-54-24,8,22,0.5286970763441385,right,heavy poles sphere,heavy poles sphere,right,right,0.6187826678651618,0.2959374680262954
KSB1989M,2019-05-20-16-54-24,8,23,0.6683047218976389,right,heavy poles sphere,stripes-4,right,right,0.7474718605803901,0.2878569382683054
KSB1989M,2019-05-20-16-54-24,8,24,0.6879800042097985,left,stripes-4,stripes-2,right,left,0.6291259823101427,0.3518384503595371
KSB1989M,2019-05-20-16-54-24,8,25,0.5423989778049503,right,stripes-8,stripes-2,right,right,0.8871624288176463,0.3116618934432154
KSB1989M,2019-05-20-16-54-24,8,26,0.6556329166360375,right,stripes-8,stripes-8,right,right,0.443389798249882,0.34379866067774856
KSB1989M,2019-05-20-16-54-24,8,27,0.6279337546258643,right,stripes-4,stripes-4,right,right,0.4500559320817956,0.3039831665737438
KSB1989M,2019-05-20-16-54-24,8,28,0.6866441609399707,left,stripes-2,stripes-4,right,right,0.519352313647687,0.2878261499663495
KSB1989M,2019-05-20-16-54-24,8,29,0.5063548983825663,right,stripes-4,stripes-8,right,right,0.6101286671123489,0.3039530002574793
KSB1989M,2019-05-20-16-54-24,8,30,0.5043251766670775,left,stripes-2,stripes-2,right,left,0.4874957510587592,0.3119523608561394
KSB1989M,2019-05-20-16-54-24,8,31,0.6273584163614699,left,stripes-8,stripes-4,right,right,0.44558820739621297,0.2878342357830661
KSB1989M,2019-05-20-16-54-24,8,32,0.591431129990908,right,stripes-2,stripes-8,right,right,0.5910713302755539,0.2957116871461949
KSB1989M,2019-05-20-16-54-24,8,33,0.5229173847249925,left,stripes-2,stripes-4,left,left,0.5089194332340412,0.29582737652253854
KSB1989M,2019-05-20-16-54-24,8,34,0.5180351933736516,right,heavy poles sphere,stripes-4,right,right,0.4396992449401296,0.30384290875463194
KSB1989M,2019-05-20-16-54-24,8,35,0.5323328657492915,right,stripes-4,stripes-2,right,right,0.3317734963725343,0.30383451194484223
KSB1989M,2019-05-20-16-54-24,8,36,0.6831509262616037,right,heavy poles sphere,heavy poles sphere,right,right,0.5126724961255604,0.2878102893259893
KSB1989M,2019-05-20-16-54-24,8,37,0.6410983721250918,right,stripes-8,heavy poles sphere,right,right,0.44733381081096013,0.2959971786717688
KSB1989M,2019-05-20-16-54-24,8,38,0.5192661702320693,left,stripes-8,stripes-4,right,right,0.5401636507090188,0.3359787430099459
KSB1989M,2019-05-20-16-54-24,8,39,0.5158203464497683,left,stripes-8,stripes-2,right,right,0.48354489665234723,0.37586358854150603
KSB1989M,2019-05-20-16-54-24,8,40,0.6258040237224067,left,stripes-4,stripes-8,right,right,0.43827054333905835,0.3037368601594608
KSB1989M,2019-05-20-16-54-24,8,41,0.642185775184243,left,stripes-2,stripes-2,left,right,0.5262196599169329,0.2718299167127043
KSB1989M,2019-05-20-16-54-24,8,42,0.6503672850865243,right,heavy poles sphere,stripes-2,right,right,0.5163164004929968,0.30372721937783353
KSB1989M,2019-05-20-16-54-24,8,43,0.5792960214129504,left,stripes-4,stripes-4,right,right,0.4829145139474349,0.2958211566638056
KSB1989M,2019-05-20-16-54-24,8,44,0.6702191084286158,left,stripes-8,stripes-8,right,right,0.8235248749265338,0.2638364649801588
KSB1989M,2019-05-20-16-54-24,8,45,0.5193324943152443,right,stripes-4,heavy poles sphere,right,right,0.7667655520572225,0.2877916297493357
KSB1989M,2019-05-20-16-54-24,8,46,0.6974268244599602,right,stripes-2,heavy poles sphere,right,right,0.3925157059211415,0.2638103415729347
KSB1989M,2019-05-20-16-54-24,8,47,0.6711682758806092,left,heavy poles sphere,stripes-8,right,right,0.8359512201341204,3.9116422386891827
KSB1989M,2019-05-20-16-54-24,9,0,0.6455713673468608,left,stripes-4,stripes-8,right,right,0.6997089417004645,0.2718650589158642
KSB1989M,2019-05-20-16-54-24,9,1,0.5872915733532027,right,stripes-8,stripes-8,right,right,0.7964274374148772,0.3916772689344725
KSB1989M,2019-05-20-16-54-24,9,2,0.5668542169347792,right,heavy poles sphere,stripes-2,right,right,0.5100607773520096,0.32780647033268906
KSB1989M,2019-05-20-16-54-24,9,3,0.5851374994334063,left,stripes-2,stripes-8,right,right,0.5720786799715825,0.26381376249537425
KSB1989M,2019-05-20-16-54-24,9,4,0.5427979970493068,left,stripes-2,heavy poles sphere,right,right,0.4136274621700977,0.23963810372652006
KSB1989M,2019-05-20-16-54-24,9,5,0.6315429967511219,left,stripes-4,stripes-4,right,left,0.4562736140828747,0.27180441529162636
KSB1989M,2019-05-20-16-54-24,9,6,0.6540803204352137,left,stripes-8,heavy poles sphere,right,right,0.3769928039341721,0.35181294893754966
KSB1989M,2019-05-20-16-54-24,9,7,0.5821584734312079,right,heavy poles sphere,stripes-8,right,right,0.5724565364030241,0.3038239381849053
KSB1989M,2019-05-20-16-54-24,9,8,0.5423031898846354,right,stripes-8,stripes-2,right,right,0.5864126559199576,0.2959782081020421
KSB1989M,2019-05-20-16-54-24,9,9,0.6013066155502639,right,stripes-2,stripes-2,right,right,0.3505627572881167,0.3198204824311688
KSB1989M,2019-05-20-16-54-24,9,10,0.6937335224935954,right,heavy poles sphere,stripes-4,right,right,0.5198048083861977,0.3038662332255626
KSB1989M,2019-05-20-16-54-24,9,11,0.5137453154185533,left,stripes-2,stripes-4,right,right,0.4405725131368854,0.3038127424383674
KSB1989M,2019-05-20-16-54-24,9,12,0.6099019905346389,right,stripes-4,heavy poles sphere,right,right,0.36263208259242674,0.2878693779857713
KSB1989M,2019-05-20-16-54-24,9,13,0.6963647050030246,left,stripes-4,stripes-2,right,right,0.4280839693396956,0.29585443290898183
KSB1989M,2019-05-20-16-54-24,9,14,0.5945451865242435,right,heavy poles sphere,heavy poles sphere,right,right,0.46488718575346866,0.3119221945407844
KSB1989M,2019-05-20-16-54-24,9,15,0.5473055987636701,left,stripes-8,stripes-4,right,right,0.45099792971996067,0.33580583093089444
KSB1989M,2019-05-20-16-54-24,9,16,0.6525153119699892,right,stripes-4,stripes-2,right,right,0.3444483249454606,0.27971669786438724
KSB1989M,2019-05-20-16-54-24,9,17,0.5546736237701678,right,stripes-2,stripes-8,right,right,0.47998185045162245,0.35972647548260284
KSB1989M,2019-05-20-16-54-24,9,18,0.5136421459943589,right,stripes-2,stripes-2,right,right,0.8566020848343214,0.2959520846943633
KSB1989M,2019-05-20-16-54-24,9,19,0.656064104865246,right,stripes-8,stripes-8,right,right,0.5750750970223635,0.3037026509350653
KSB1989M,2019-05-20-16-54-24,9,20,0.6211378678631114,left,stripes-2,stripes-4,right,right,0.5622304662997522,0.27980159893922973
KSB1989M,2019-05-20-16-54-24,9,21,0.5835795966285102,left,heavy poles sphere,stripes-2,right,right,0.7216118640076274,0.2877953616648483
KSB1989M,2019-05-20-16-54-24,9,22,0.693211870256444,right,heavy poles sphere,heavy poles sphere,right,right,0.8948818957633193,0.2558209327489749
KSB1989M,2019-05-20-16-54-24,9,23,0.6919897155163433,right,stripes-2,heavy poles sphere,right,right,1.0450690979682804,0.271819031960149
KSB1989M,2019-05-20-16-54-24,9,24,0.5817594138534905,right,heavy poles sphere,stripes-8,right,right,0.5441117061791374,0.3117943764386837
KSB1989M,2019-05-20-16-54-24,9,25,0.5179244943973073,right,stripes-4,stripes-8,right,right,0.42414151174307335,0.28783610174059504
KSB1989M,2019-05-20-16-54-24,9,26,0.6556939642236453,right,stripes-8,stripes-4,right,right,0.5748726406131937,0.2877969166293042
KSB1989M,2019-05-20-16-54-24,9,27,0.5825669788532535,left,heavy poles sphere,stripes-4,right,right,0.5095274244463326,0.31194676298309787
KSB1989M,2019-05-20-16-54-24,9,28,0.6820840867732092,right,stripes-4,heavy poles sphere,right,right,0.5456343276505322,0.29568556373851607
KSB1989M,2019-05-20-16-54-24,9,29,0.6273007045887273,left,stripes-4,stripes-4,right,right,0.6847610656732286,0.29582706552946547
KSB1989M,2019-05-20-16-54-24,9,30,0.680080999046513,left,stripes-8,stripes-2,right,right,0.8252608375601085,0.3119293473782818
KSB1989M,2019-05-20-16-54-24,9,31,0.6409625442475654,left,stripes-8,heavy poles sphere,right,right,0.9063491387209979,0.32791376289969776
KSB1989M,2019-05-20-16-54-24,9,32,0.5473358876410134,left,stripes-8,stripes-8,right,right,0.8340317716615573,0.26381314050968285
KSB1989M,2019-05-20-16-54-24,9,33,0.5190115933635646,left,stripes-8,heavy poles sphere,right,right,0.7606962136919719,0.29570671125884473
KSB1989M,2019-05-20-16-54-24,9,34,0.5133713705208884,right,stripes-8,stripes-2,right,right,0.6725710751056795,0.2957365665820362
KSB1989M,2019-05-20-16-54-24,9,35,0.5462897764000529,left,stripes-4,stripes-4,right,left,0.6030734811029106,0.3278369476415719
KSB1989M,2019-05-20-16-54-24,9,36,0.6412890509477142,left,stripes-2,stripes-8,left,left,0.5789684177334493,0.30395268926486096
KSB1989M,2019-05-20-16-54-24,9,37,0.5916887267689636,right,stripes-2,stripes-4,right,left,0.8382724714952019,0.31183169559290036
KSB1989M,2019-05-20-16-54-24,9,38,0.539290341700835,left,stripes-2,heavy poles sphere,left,right,0.41071781215214287,0.2878454315291492
KSB1989M,2019-05-20-16-54-24,9,39,0.6748430374685751,left,stripes-2,stripes-2,right,right,0.42680174541692395,0.3438117223813606
KSB1989M,2019-05-20-16-54-24,9,40,0.6639243317751887,left,stripes-4,stripes-8,left,left,0.3120957286050725,0.31183293956428315
KSB1989M,2019-05-20-16-54-24,9,41,0.6691426717476219,left,heavy poles sphere,stripes-4,left,left,0.2930368368033669,0.3037412140606648
KSB1989M,2019-05-20-16-54-24,9,42,0.5494721727929877,left,heavy poles sphere,heavy poles sphere,left,left,0.3605782851659569,0.32792340368087025
KSB1989M,2019-05-20-16-54-24,9,43,0.5878763921945533,left,heavy poles sphere,stripes-8,left,left,0.2780771430443565,0.3118515991413915
KSB1989M,2019-05-20-16-54-24,9,44,0.5007455601673926,right,stripes-4,heavy poles sphere,right,right,0.3550737099935759,0.33592774016688054
KSB1989M,2019-05-20-16-54-24,9,45,0.6355715886661114,right,stripes-4,stripes-2,right,right,0.46931448135546816,0.31974895405255666
KSB1989M,2019-05-20-16-54-24,9,46,0.6727364546669571,right,heavy poles sphere,stripes-2,right,right,0.6191375108187458,0.3758399530775023
KSB1989M,2019-05-20-16-54-24,9,47,0.649181675177234,left,stripes-8,stripes-4,right,right,0.5837203899727683,0.31984536186701007
KSB1989M,2019-05-20-16-54-24,10,0,0.6675166263979125,right,stripes-2,stripes-4,right,right,0.2815863874657225,0.31195982468716466
KSB1989M,2019-05-20-16-54-24,10,1,0.5994181244316956,left,stripes-8,stripes-8,right,right,0.5930980713151257,0.3038195842832465
KSB1989M,2019-05-20-16-54-24,10,2,0.5641360944431083,left,stripes-2,stripes-8,right,right,0.6777858048512826,0.35980422371949317
KSB1989M,2019-05-20-16-54-24,10,3,0.5891760311007452,right,stripes-4,stripes-8,right,right,0.5309122325029421,0.3438555723873833
KSB1989M,2019-05-20-16-54-24,10,4,0.6110746868323577,left,heavy poles sphere,heavy poles sphere,right,right,0.28894043769741984,0.3278204650155203
KSB1989M,2019-05-20-16-54-24,10,5,0.560565407536638,right,heavy poles sphere,stripes-4,right,right,0.2658345946688314,0.3038419757754127
KSB1989M,2019-05-20-16-54-24,10,6,0.6005588488980168,left,stripes-2,heavy poles sphere,right,right,0.3233406116050901,0.3358773593090518
KSB1989M,2019-05-20-16-54-24,10,7,0.5103574993015506,left,stripes-8,stripes-4,right,right,0.571573627424641,0.31203073107872115
KSB1989M,2019-05-20-16-54-24,10,8,0.6947975601341717,right,heavy poles sphere,stripes-2,right,right,0.8601990292668233,0.3117921994880817
KSB1989M,2019-05-20-16-54-24,10,9,0.5316513946584434,right,stripes-4,stripes-2,right,right,0.42264408070013815,0.34384779756373973
KSB1989M,2019-05-20-16-54-24,10,10,0.651883164420811,right,stripes-4,stripes-4,right,left,0.579971058996307,0.3518210347542663
KSB1989M,2019-05-20-16-54-24,10,11,0.5158923819644712,left,stripes-4,heavy poles sphere,right,right,0.45875689276999765,0.34374330393302444
KSB1989M,2019-05-20-16-54-24,10,12,0.5911907476435448,right,stripes-2,stripes-2,right,right,0.9620283830827248,0.4239993879659778
KSB1989M,2019-05-20-16-54-24,10,13,0.585582234767396,left,stripes-8,stripes-2,right,right,0.9616834919033863,0.34372682130697285
KSB1989M,2019-05-20-16-54-24,10,14,0.5096742182838336,right,stripes-8,heavy poles sphere,right,left,0.48933029845693454,0.34396690786252293
KSB1989M,2019-05-20-16-54-24,10,15,0.5239757913022735,right,heavy poles sphere,stripes-8,left,left,0.3714443787557684,0.30396450699663546
KSB1989M,2019-05-20-16-54-24,10,16,0.5346286505128762,right,stripes-2,stripes-4,right,right,0.5222548108276897,0.3359526196027218
KSB1989M,2019-05-20-16-54-24,10,17,0.5661323169484396,right,stripes-2,stripes-2,right,right,0.9203512851936466,0.38380292750116496
KSB1989M,2019-05-20-16-54-24,10,18,0.5177083705851562,right,stripes-8,stripes-8,right,right,0.47795728636265267,0.31183729346548716
KSB1989M,2019-05-20-16-54-24,10,19,0.6851625710840403,right,stripes-4,stripes-8,right,right,1.193872692549121,0.2798050198616693
KSB1989M,2019-05-20-16-54-24,10,20,0.6564049619078081,left,heavy poles sphere,stripes-4,right,right,0.7887885176428426,0.32768984797758094
KSB1989M,2019-05-20-16-54-24,10,21,0.5435446453556719,right,stripes-2,stripes-8,right,right,5.8969966478071,7.943304741678276
KSB1989M,2019-05-20-16-54-24,10,22,0.5116608931291567,right,stripes-2,heavy poles sphere,right,right,0.3819798868421458,0.27983300922687704
KSB1989M,2019-05-20-16-54-24,10,23,0.5607754682709503,left,heavy poles sphere,stripes-2,right,right,0.5008597400037615,0.2878454315291492
KSB1989M,2019-05-20-16-54-24,10,24,0.6707563787520368,right,stripes-8,heavy poles sphere,right,right,0.29020431303706573,0.29594679781484956
KSB1989M,2019-05-20-16-54-24,10,25,0.5143669747614321,left,heavy poles sphere,stripes-8,right,right,3.036954669978968,1.6557665711816298
KSB1989M,2019-05-20-16-54-24,10,26,0.6003484869864987,left,heavy poles sphere,heavy poles sphere,right,right,1.1753117004568594,0.4877364596004554
KSB1989M,2019-05-20-16-54-24,10,27,0.6429465367499588,left,stripes-8,stripes-4,right,right,1.2884913638813487,0.48790563976399426
KSB1989M,2019-05-20-16-54-24,10,28,0.6403037512728302,right,stripes-4,stripes-2,right,right,0.9649641565074489,0.5038340765545399
KSB1989M,2019-05-20-16-54-24,10,29,0.6810147061973298,right,stripes-4,heavy poles sphere,right,right,0.7976959776483454,0.5038546020891772
KSB1989M,2019-05-20-16-54-24,10,30,0.6063963049013756,left,stripes-4,stripes-4,right,left,0.8393251826228152,0.45598252468425926
KSB1989M,2019-05-20-16-54-24,10,31,0.5735177412463046,right,stripes-8,stripes-2,right,right,0.938320146713977,0.5118343701319645
KSB1989M,2019-05-20-16-54-24,10,32,0.5254360517218684,right,stripes-8,stripes-2,right,right,0.857158451217856,0.6398033031800878
KSB1989M,2019-05-20-16-54-24,10,33,0.5751858181801386,left,stripes-4,heavy poles sphere,right,right,0.8853182406382984,0.5998139640187219
KSB1989M,2019-05-20-16-54-24,10,34,0.6813956046393368,right,heavy poles sphere,heavy poles sphere,right,right,1.2147424962845434,0.5597761099570562
KSB1989M,2019-05-20-16-54-24,10,35,0.6101133276819511,right,stripes-2,heavy poles sphere,right,right,1.0139498996577458,0.5118172655197668
KSB1989M,2019-05-20-16-54-24,10,36,0.6158937284401983,right,stripes-4,stripes-2,right,right,0.9653230423691639,0.5359671118740152
KSB1989M,2019-05-20-16-54-24,10,37,0.6412481966636769,right,stripes-2,stripes-8,right,right,0.965360983509072,0.5118695123351245
KSB1989M,2019-05-20-16-54-24,10,38,0.5566949019674144,left,stripes-8,stripes-8,right,right,0.8262420203100191,0.5598199599630789
KSB1989M,2019-05-20-16-54-24,10,39,0.6720612581890788,left,heavy poles sphere,stripes-4,right,right,0.8391603563604804,0.6797012104157147
KSB1989M,2019-05-20-16-54-24,10,40,0.6112006317035751,right,stripes-4,stripes-4,right,right,0.8072568338366182,0.6317016259022239
KSB1989M,2019-05-20-16-54-24,10,41,0.6015885381565469,left,stripes-2,stripes-4,right,right,0.9385499705026632,0.5758068634281699
KSB1989M,2019-05-20-16-54-24,10,42,0.6295638213143153,right,stripes-2,stripes-2,right,right,0.8346422508175237,0.5438417643003959
KSB1989M,2019-05-20-16-54-24,10,43,0.6388212447734146,left,stripes-8,heavy poles sphere,right,right,1.0000491368855364,0.487860545786134
KSB1989M,2019-05-20-16-54-24,10,44,0.6193000060945989,right,heavy poles sphere,stripes-2,right,right,1.0029597198822557,0.5999710154574132
KSB1989M,2019-05-20-16-54-24,10,45,0.6403871321718223,right,stripes-4,stripes-8,right,right,0.8061975918571989,0.5598249358499743
KSB1989M,2019-05-20-16-54-24,10,46,0.6527031285741386,right,heavy poles sphere,stripes-8,right,right,0.9484625597146987,0.5678152776526986
KSB1989M,2019-05-20-16-54-24,10,47,0.6020351727628807,right,stripes-8,stripes-4,right,right,1.1891428008088951,0.671819716144455
