Participant,Session,Block,Trial,OnsetDelay,Bias,Shape1,Shape2,Response1,Response2,RT1,RT2
AZN1997w,2019-05-15-11-26-49,0,0,0.6949482351919849,right,stripes-8,stripes-2,right,right,18.340913911312782,0.9438174117976814
AZN1997w,2019-05-15-11-26-49,0,1,0.628049494990072,right,stripes-2,stripes-8,right,right,0.27879071919778653,19.094764170277813
AZN1997w,2019-05-15-11-26-49,0,2,0.6944613385767295,right,stripes-2,stripes-2,right,right,0.6196831719380498,0.2798337924632506
AZN1997w,2019-05-15-11-26-49,0,3,0.5418333535048991,right,heavy poles sphere,heavy poles sphere,right,right,0.4104079679100323,0.31984097020085756
AZN1997w,2019-05-15-11-26-49,0,4,0.5424069974474374,left,stripes-2,heavy poles sphere,left,right,0.5984559778917173,0.3838459859098293
AZN1997w,2019-05-15-11-26-49,0,5,0.6753431633373977,right,stripes-4,stripes-8,right,right,0.44235885079069703,0.3279582198465505
AZN1997w,2019-05-15-11-26-49,0,6,0.6838383689252414,right,stripes-8,stripes-8,right,left,0.2943040238251342,0.47982614201646356
AZN1997w,2019-05-15-11-26-49,0,7,0.6435415485696737,left,heavy poles sphere,stripes-2,right,right,0.5330091948426343,3.711630360212439
AZN1997w,2019-05-15-11-26-49,0,8,0.6913966277575154,left,stripes-8,stripes-4,right,left,0.28274562758269894,0.2958362903664238
AZN1997w,2019-05-15-11-26-49,0,9,0.5702462653367971,right,heavy poles sphere,stripes-8,left,right,0.33297455013234867,0.30381483676865173
AZN1997w,2019-05-15-11-26-49,0,10,0.6418907978942554,left,stripes-4,stripes-2,right,left,0.3757393100540867,0.23183065266948688
AZN1997w,2019-05-15-11-26-49,0,11,0.6056088460609549,left,heavy poles sphere,stripes-4,left,right,0.3746144454134992,0.2959317654676852
AZN1997w,2019-05-15-11-26-49,0,12,0.5150123812304321,right,stripes-2,stripes-4,right,left,0.3421594415549407,0.24782319877067494
AZN1997w,2019-05-15-11-26-49,0,13,0.6931148151665549,left,stripes-4,stripes-4,left,right,0.3130361144676499,0.27170068213399645
AZN1997w,2019-05-15-11-26-49,0,14,0.6624923785511625,left,stripes-8,heavy poles sphere,right,left,0.2783935800925974,0.27181948177258164
AZN1997w,2019-05-15-11-26-49,0,15,0.6696435418358245,left,stripes-4,heavy poles sphere,left,right,0.27805895074379805,0.28782384563783125
AZN1997w,2019-05-15-11-26-49,0,16,0.6003942616118161,right,stripes-2,stripes-4,right,left,0.8860798545038051,0.3998267142451368
AZN1997w,2019-05-15-11-26-49,0,17,0.5358753492342372,left,stripes-8,heavy poles sphere,left,right,0.2918695642165403,0.24796594493273005
AZN1997w,2019-05-15-11-26-49,0,18,0.5767426375206883,left,stripes-2,stripes-8,right,left,0.5340703057499923,0.2719326835222091
AZN1997w,2019-05-15-11-26-49,0,19,0.6945193260294257,right,stripes-4,stripes-2,left,right,0.3841631996037904,0.26366864479405194
AZN1997w,2019-05-15-11-26-49,0,20,0.6466509216653173,left,stripes-4,heavy poles sphere,right,left,0.3082343699170451,0.22384339844120404
AZN1997w,2019-05-15-11-26-49,0,21,0.6355153587713654,right,heavy poles sphere,heavy poles sphere,left,right,0.28654503905818274,0.40770169970528514
AZN1997w,2019-05-15-11-26-49,0,22,0.6183087340629188,right,stripes-2,stripes-2,right,left,0.39246766752785334,0.23183345161396574
AZN1997w,2019-05-15-11-26-49,0,23,0.5883329080132749,right,stripes-2,heavy poles sphere,right,right,0.07938241603642382,3.1836912975841187
AZN1997w,2019-05-15-11-26-49,0,24,0.5138558427164328,right,heavy poles sphere,stripes-8,right,left,0.46135684114869946,0.23181727993596724
AZN1997w,2019-05-15-11-26-49,0,25,0.5917228957543416,left,stripes-8,stripes-8,left,right,0.3281709396178485,0.23180452918950323
AZN1997w,2019-05-15-11-26-49,0,26,0.5785294146413122,right,stripes-8,stripes-4,right,left,0.31305166415859276,0.23982568174506014
AZN1997w,2019-05-15-11-26-49,0,27,0.5895128294197628,left,stripes-8,stripes-2,left,right,0.36207393069435057,0.2716994381589757
AZN1997w,2019-05-15-11-26-49,0,28,0.6084050447691393,left,stripes-4,stripes-4,right,left,0.4067904878183981,0.2637924203345392
AZN1997w,2019-05-15-11-26-49,0,29,0.6531278355672683,left,stripes-4,stripes-8,left,right,0.3761740794116122,0.2558343995233372
AZN1997w,2019-05-15-11-26-49,0,30,0.5420308140944761,right,heavy poles sphere,stripes-4,left,right,0.32036188484653394,0.25584652828274557
AZN1997w,2019-05-15-11-26-49,0,31,0.6524760404500706,right,heavy poles sphere,stripes-2,left,right,0.350692178940335,0.23972460875393153
AZN1997w,2019-05-15-11-26-49,0,32,0.6799958355765731,left,stripes-8,stripes-8,right,right,0.6179978964373731,0.2398393654730171
AZN1997w,2019-05-15-11-26-49,0,33,0.6242088707004174,left,stripes-8,heavy poles sphere,right,right,2.7578969105252327,2.1037805030509844
AZN1997w,2019-05-15-11-26-49,0,34,0.6440736973371597,left,stripes-4,stripes-4,right,right,0.42855539017637057,0.2638627049373099
AZN1997w,2019-05-15-11-26-49,0,35,0.5386730689553025,right,heavy poles sphere,stripes-2,right,right,2.9786670680559837,1.6477612488015438
AZN1997w,2019-05-15-11-26-49,0,36,0.5494259079840642,left,stripes-4,stripes-8,right,right,0.2796030350500587,3.7996602703533426
AZN1997w,2019-05-15-11-26-49,0,37,0.6324745570589789,right,stripes-2,stripes-8,right,right,0.30289553904185595,0.6638209695665864
AZN1997w,2019-05-15-11-26-49,0,38,0.5177778761065417,left,stripes-4,heavy poles sphere,right,right,0.29090392841135326,3.5196918175661267
AZN1997w,2019-05-15-11-26-49,0,39,0.670514321275123,right,stripes-8,stripes-4,right,right,0.314938463652652,0.4798248980405333
AZN1997w,2019-05-15-11-26-49,0,40,0.5790021573151699,left,heavy poles sphere,stripes-4,right,right,0.2271066565745059,0.5596980623213312
AZN1997w,2019-05-15-11-26-49,0,41,0.6727820653878802,left,stripes-2,stripes-2,left,left,0.39911298343213275,0.7516521546585864
AZN1997w,2019-05-15-11-26-49,0,42,0.6152770955257938,left,heavy poles sphere,stripes-8,right,right,0.7354300951210462,0.31170257297617354
AZN1997w,2019-05-15-11-26-49,0,43,0.5259366869254588,right,heavy poles sphere,heavy poles sphere,right,right,0.3692728155956502,0.26395164916903013
AZN1997w,2019-05-15-11-26-49,0,44,0.5038652784745495,left,stripes-8,stripes-2,right,right,0.32231461502942693,0.5917226507372106
AZN1997w,2019-05-15-11-26-49,0,45,0.6025603515449092,left,stripes-2,stripes-4,right,right,1.5633068345869106,0.5118525963944194
AZN1997w,2019-05-15-11-26-49,0,46,0.6314138057783973,left,stripes-2,heavy poles sphere,left,right,0.6376788292200217,0.3518279283644006
AZN1997w,2019-05-15-11-26-49,0,47,0.5828157625395435,left,stripes-4,stripes-2,right,right,2.364748788523684,1.5839167059039028
AZN1997w,2019-05-15-11-26-49,1,0,0.5544451828875563,right,stripes-8,heavy poles sphere,right,right,0.31026764750004077,3.127696860641663
AZN1997w,2019-05-15-11-26-49,1,1,0.6898435254077661,left,stripes-2,heavy poles sphere,right,right,0.07036546127528709,0.4395418687872734
AZN1997w,2019-05-15-11-26-49,1,2,0.698930382338089,left,stripes-4,heavy poles sphere,right,left,0.5256622768856687,0.30369790309305245
AZN1997w,2019-05-15-11-26-49,1,3,0.5973437532098117,left,heavy poles sphere,stripes-4,right,right,0.2922499096557658,2.359898528937265
AZN1997w,2019-05-15-11-26-49,1,4,0.6225810507769685,left,stripes-4,stripes-2,right,left,0.4867168320433848,0.34398684122970735
AZN1997w,2019-05-15-11-26-49,1,5,0.6393771179765243,left,stripes-4,stripes-8,right,right,0.2746756489977997,2.6717338962735084
AZN1997w,2019-05-15-11-26-49,1,6,0.6110981790118992,right,heavy poles sphere,stripes-2,right,right,0.3782661348259353,3.1596875507302684
AZN1997w,2019-05-15-11-26-49,1,7,0.6696157007763255,right,stripes-4,stripes-4,right,right,0.29454131210786727,1.6958284533220649
AZN1997w,2019-05-15-11-26-49,1,8,0.5750391912201183,left,stripes-8,stripes-4,right,right,0.733725227009927,0.43172721612609166
AZN1997w,2019-05-15-11-26-49,1,9,0.661254605574182,right,heavy poles sphere,heavy poles sphere,right,right,0.518029555609246,1.0158392261473637
AZN1997w,2019-05-15-11-26-49,1,10,0.5449284474061791,left,stripes-8,stripes-2,right,right,0.41684429596898553,0.5998573160359228
AZN1997w,2019-05-15-11-26-49,1,11,0.6103655535645248,left,stripes-2,stripes-8,right,right,0.4306356278248131,0.5838296276351684
AZN1997w,2019-05-15-11-26-49,1,12,0.6546241027017712,left,heavy poles sphere,stripes-8,right,right,0.3878179989542332,0.5438255598355681
AZN1997w,2019-05-15-11-26-49,1,13,0.5075318270613111,left,stripes-2,stripes-2,right,left,0.7770989128284782,0.5279549233118814
AZN1997w,2019-05-15-11-26-49,1,14,0.5656794941698552,right,stripes-2,stripes-4,left,right,1.1647069909540733,0.4078214323253633
AZN1997w,2019-05-15-11-26-49,1,15,0.5630516961790288,left,stripes-8,stripes-8,right,right,0.23018767232861137,2.9117200508289898
AZN1997w,2019-05-15-11-26-49,1,16,0.501667986421224,left,stripes-2,stripes-4,right,left,0.6016853376986546,1.279755733015918
AZN1997w,2019-05-15-11-26-49,1,17,0.6230743459388229,right,stripes-8,stripes-4,right,right,0.3635639020767485,2.1437593803511845
AZN1997w,2019-05-15-11-26-49,1,18,0.6567751400985182,left,stripes-4,stripes-8,left,right,0.018124719716979598,0.4637231931110364
AZN1997w,2019-05-15-11-26-49,1,19,0.6565485361173655,right,heavy poles sphere,stripes-4,right,right,0.41294567746535904,2.34376074872398
AZN1997w,2019-05-15-11-26-49,1,20,0.5752758677180019,left,stripes-8,stripes-2,right,right,0.46077217277070304,0.8556942035102111
AZN1997w,2019-05-15-11-26-49,1,21,0.6426665947743928,right,heavy poles sphere,stripes-8,right,left,0.20556193784068455,0.5838364694991469
AZN1997w,2019-05-15-11-26-49,1,22,0.6405323610815707,left,heavy poles sphere,stripes-2,left,left,0.3882838676936444,1.8079087593896475
AZN1997w,2019-05-15-11-26-49,1,23,0.5846978638677366,right,stripes-2,stripes-8,left,right,0.32317357995543716,0.6318337004095156
AZN1997w,2019-05-15-11-26-49,1,24,0.5679501276745637,left,stripes-8,stripes-8,right,right,0.24507867832653574,1.0638392560031207
AZN1997w,2019-05-15-11-26-49,1,25,0.6267350534507631,right,stripes-2,heavy poles sphere,left,right,0.33533281625477684,0.6158464412037574
AZN1997w,2019-05-15-11-26-49,1,26,0.6399610616190115,right,heavy poles sphere,heavy poles sphere,right,right,0.8965314237484563,0.8079697141783981
AZN1997w,2019-05-15-11-26-49,1,27,0.5765902499896687,right,stripes-8,heavy poles sphere,right,right,0.25257860524288844,3.3836914219818937
AZN1997w,2019-05-15-11-26-49,1,28,0.6179919977543211,right,stripes-4,stripes-2,right,right,0.08690286854471196,1.111939114874076
AZN1997w,2019-05-15-11-26-49,1,29,0.6344302336631298,right,stripes-4,stripes-4,right,right,0.6038004066558642,2.7998882288220557
AZN1997w,2019-05-15-11-26-49,1,30,0.6340604201805067,right,stripes-2,stripes-2,right,right,0.3749929248906483,0.7118272192983568
AZN1997w,2019-05-15-11-26-49,1,31,0.5800901386312136,left,stripes-4,heavy poles sphere,left,left,0.37282809692351293,0.535843903494424
AZN1997w,2019-05-15-11-26-49,1,32,0.5221382966446427,left,heavy poles sphere,stripes-8,right,right,0.3235134961987569,0.9358174068220251
AZN1997w,2019-05-15-11-26-49,1,33,0.6957129923215946,right,stripes-4,stripes-8,right,right,0.5877553026002715,0.41584165190033673
AZN1997w,2019-05-15-11-26-49,1,34,0.612536020815834,right,stripes-8,stripes-2,right,left,0.4095751264658247,0.5918302545978804
AZN1997w,2019-05-15-11-26-49,1,35,0.5792248098634254,right,stripes-2,stripes-4,right,right,0.6169190588825586,0.4876600762936505
AZN1997w,2019-05-15-11-26-49,1,36,0.63082598549494,left,stripes-4,heavy poles sphere,left,right,0.33142362396120006,0.5438311577245258
AZN1997w,2019-05-15-11-26-49,1,37,0.6880870771257177,left,heavy poles sphere,heavy poles sphere,right,right,0.3578475247068127,0.3999504897847146
AZN1997w,2019-05-15-11-26-49,1,38,0.6842729057573766,left,stripes-2,stripes-2,left,right,1.9557598854044045,0.34384627202416596
AZN1997w,2019-05-15-11-26-49,1,39,0.6019381410322785,right,stripes-2,heavy poles sphere,left,right,1.4705930465515848,0.34388079233758617
AZN1997w,2019-05-15-11-26-49,1,40,0.5348529916679059,left,stripes-2,stripes-8,right,right,0.2625350723274096,0.3678074127237778
AZN1997w,2019-05-15-11-26-49,1,41,0.6663269372384057,left,stripes-4,stripes-2,right,right,0.06534260011903825,0.6798265774077663
AZN1997w,2019-05-15-11-26-49,1,42,0.6494030418861084,left,stripes-8,stripes-8,left,left,0.279999863163539,0.3438437840732149
AZN1997w,2019-05-15-11-26-49,1,43,0.6781686328325526,right,stripes-4,stripes-4,left,left,0.7707885372656165,2.5357216829243043
AZN1997w,2019-05-15-11-26-49,1,44,0.6691174835226621,right,stripes-8,heavy poles sphere,right,right,0.7693026088027182,1.3839277772840433
AZN1997w,2019-05-15-11-26-49,1,45,0.5784029044415315,right,stripes-8,stripes-4,right,right,0.4255860212006155,0.7438356360353282
AZN1997w,2019-05-15-11-26-49,1,46,0.5150257879902187,left,heavy poles sphere,stripes-2,right,right,0.32605898059955507,0.7438406119363208
AZN1997w,2019-05-15-11-26-49,1,47,0.5247117523295639,left,heavy poles sphere,stripes-4,right,right,0.35004779975042766,0.431749607681013
AZN1997w,2019-05-15-11-26-49,2,0,0.5676977255591499,left,heavy poles sphere,stripes-8,right,right,0.3103099426589324,0.8796848886231601
AZN1997w,2019-05-15-11-26-49,2,1,0.6737847488935513,right,stripes-4,heavy poles sphere,right,right,0.42715902793315763,0.679975232452307
AZN1997w,2019-05-15-11-26-49,2,2,0.5059721973089304,left,heavy poles sphere,stripes-4,right,right,0.9384561893675709,0.9918441871213872
AZN1997w,2019-05-15-11-26-49,2,3,0.5985718815409835,right,stripes-8,heavy poles sphere,right,right,0.4048803637879246,0.6638100847831083
AZN1997w,2019-05-15-11-26-49,2,4,0.5793408396130494,right,stripes-2,stripes-2,right,right,0.5133341709433807,0.7438421669048694
AZN1997w,2019-05-15-11-26-49,2,5,0.5778531157091862,left,heavy poles sphere,heavy poles sphere,right,right,0.3123550380059896,3.3116919991862233
AZN1997w,2019-05-15-11-26-49,2,6,0.5078304499006994,left,stripes-4,stripes-4,right,right,0.43941995920977206,1.1118162723169007
AZN1997w,2019-05-15-11-26-49,2,7,0.5422127866479988,right,heavy poles sphere,stripes-2,right,right,1.3468290137325312,0.6398085148866812
AZN1997w,2019-05-15-11-26-49,2,8,0.6744646149212914,left,stripes-2,heavy poles sphere,right,right,0.5111665440317665,0.7199793002519073
AZN1997w,2019-05-15-11-26-49,2,9,0.6241739630823484,right,stripes-4,stripes-2,right,right,0.33948209577465605,0.5839944543586171
AZN1997w,2019-05-15-11-26-49,2,10,0.6390918632746433,right,stripes-2,stripes-8,right,right,0.37140747716239275,0.4478422937909272
AZN1997w,2019-05-15-11-26-49,2,11,0.611907450417547,right,stripes-4,stripes-8,right,right,0.44868166610558546,3.3597054017764094
AZN1997w,2019-05-15-11-26-49,2,12,0.580664018631839,right,stripes-8,stripes-2,right,right,0.5815845632623677,0.8878036932383111
AZN1997w,2019-05-15-11-26-49,2,13,0.6177520106438842,left,stripes-8,stripes-4,right,right,0.36118137843641307,0.7436991097483769
AZN1997w,2019-05-15-11-26-49,2,14,0.6171425402082101,left,stripes-8,stripes-8,right,right,0.3548041392032246,0.5679742298088968
AZN1997w,2019-05-15-11-26-49,2,15,0.6761564946516893,left,stripes-2,stripes-4,left,right,0.3372970532091131,0.8398328968014539
AZN1997w,2019-05-15-11-26-49,2,16,0.5038305848438469,left,stripes-4,stripes-4,right,right,0.2765472097944439,0.871709141165411
AZN1997w,2019-05-15-11-26-49,2,17,0.5144466802537936,right,stripes-8,stripes-2,right,right,0.5602295507569579,0.4958382807271846
AZN1997w,2019-05-15-11-26-49,2,18,0.6979098455502326,left,heavy poles sphere,stripes-2,right,left,0.8421093715505776,0.5036974055028622
AZN1997w,2019-05-15-11-26-49,2,19,0.6490391938889991,right,stripes-8,heavy poles sphere,right,right,0.3532329984336684,0.6797018688866956
AZN1997w,2019-05-15-11-26-49,2,20,0.5634311870603912,right,heavy poles sphere,stripes-4,right,right,0.3935449501132098,0.6078336854816371
AZN1997w,2019-05-15-11-26-49,2,21,0.5934400105932824,right,heavy poles sphere,heavy poles sphere,right,right,0.546656536561386,0.9439349674603363
AZN1997w,2019-05-15-11-26-49,2,22,0.5779273738575216,right,stripes-4,stripes-8,right,right,0.5108157430049687,0.6639456780876571
AZN1997w,2019-05-15-11-26-49,2,23,0.6328209468245252,right,stripes-8,stripes-8,right,right,0.36521683421960915,0.8638301127848536
AZN1997w,2019-05-15-11-26-49,2,24,0.5515467896124888,left,heavy poles sphere,stripes-8,right,right,0.3335645054048655,0.6398449011630873
AZN1997w,2019-05-15-11-26-49,2,25,0.5989935453749857,left,stripes-8,stripes-4,right,right,0.48548809546718985,0.5438554152415236
AZN1997w,2019-05-15-11-26-49,2,26,0.5310841128642328,right,stripes-2,stripes-8,right,right,0.446019248029188,0.38385002882932895
AZN1997w,2019-05-15-11-26-49,2,27,0.5649049521439492,right,stripes-4,heavy poles sphere,right,left,0.9660612446350569,0.4478345189454558
AZN1997w,2019-05-15-11-26-49,2,28,0.590289755468115,left,stripes-2,stripes-2,left,right,0.5962071815938543,0.37599121504717914
AZN1997w,2019-05-15-11-26-49,2,29,0.5893533583209452,right,stripes-2,stripes-4,right,right,1.3560817018078524,0.6878393331298867
AZN1997w,2019-05-15-11-26-49,2,30,0.6320387169814186,left,stripes-2,heavy poles sphere,right,right,0.3358192105861235,0.6798520789006943
AZN1997w,2019-05-15-11-26-49,2,31,0.6411060600137395,left,stripes-4,stripes-2,left,right,0.40493572068771755,0.36796695255270606
AZN1997w,2019-05-15-11-26-49,2,32,0.5067937446375548,right,stripes-8,heavy poles sphere,right,right,0.32988700350597355,0.6797298583305746
AZN1997w,2019-05-15-11-26-49,2,33,0.5744118532086631,left,stripes-4,stripes-4,right,right,0.6007567101587483,2.239774989752732
AZN1997w,2019-05-15-11-26-49,2,34,0.5472034161784602,left,stripes-2,stripes-2,right,left,0.39135151071513974,0.4558121323671003
AZN1997w,2019-05-15-11-26-49,2,35,0.5298680242893793,right,stripes-4,stripes-8,right,right,0.27150382304716913,0.6718514519361634
AZN1997w,2019-05-15-11-26-49,2,36,0.6475920129508774,right,stripes-4,stripes-2,right,left,0.3185935739966226,0.4398553505552627
AZN1997w,2019-05-15-11-26-49,2,37,0.6491005044579417,left,stripes-2,stripes-4,left,right,0.3019190184531908,0.543866611019439
AZN1997w,2019-05-15-11-26-49,2,38,0.6349628872607973,right,stripes-2,stripes-8,right,right,0.4332374021068972,1.7837672422747346
AZN1997w,2019-05-15-11-26-49,2,39,0.6793797734383022,left,stripes-4,heavy poles sphere,left,right,0.4361837575388563,0.7358300331698047
AZN1997w,2019-05-15-11-26-49,2,40,0.629945334296188,right,heavy poles sphere,stripes-4,right,right,0.38773931751711643,0.8479517014156954
AZN1997w,2019-05-15-11-26-49,2,41,0.5567097892315473,right,heavy poles sphere,stripes-2,right,right,0.3716086901622475,1.0317347421769227
AZN1997w,2019-05-15-11-26-49,2,42,0.6421989345332093,right,stripes-8,stripes-2,right,left,0.3516515948695087,0.5198354967105843
AZN1997w,2019-05-15-11-26-49,2,43,0.6116618540345337,left,heavy poles sphere,heavy poles sphere,left,left,0.42104457847563026,0.5677248127658459
AZN1997w,2019-05-15-11-26-49,2,44,0.5196999379013794,left,stripes-8,stripes-8,left,left,1.2316406354475475,0.7756879338758154
AZN1997w,2019-05-15-11-26-49,2,45,0.663745288872172,left,stripes-8,stripes-4,left,left,0.41044684213829896,0.5198358077032026
AZN1997w,2019-05-15-11-26-49,2,46,0.6824706561513247,left,heavy poles sphere,stripes-8,left,left,0.32182977566753834,0.6317279625118317
AZN1997w,2019-05-15-11-26-49,2,47,0.6987137391050423,right,stripes-2,heavy poles sphere,right,right,0.35953311120101716,0.7438782421886572
AZN1997w,2019-05-15-11-26-49,3,0,0.5408593384867679,left,stripes-8,stripes-4,right,right,0.5303187873223578,0.6877143136143786
AZN1997w,2019-05-15-11-26-49,3,1,0.6549135720599772,right,heavy poles sphere,stripes-2,right,left,0.33528803314402467,0.44784322677242017
AZN1997w,2019-05-15-11-26-49,3,2,0.6731718856690109,left,stripes-2,stripes-2,left,left,0.5398697184700723,0.7199569086960764
AZN1997w,2019-05-15-11-26-49,3,3,0.6170030857762882,right,stripes-4,heavy poles sphere,right,right,0.23215346425422467,0.7038511608470799
AZN1997w,2019-05-15-11-26-49,3,4,0.5923336448318448,left,stripes-8,stripes-2,right,left,0.850185881005018,0.4716908547297862
AZN1997w,2019-05-15-11-26-49,3,5,0.6450825289103187,right,heavy poles sphere,stripes-4,right,left,0.3710280647046602,0.5679428194325737
AZN1997w,2019-05-15-11-26-49,3,6,0.657510673946646,left,stripes-4,stripes-4,left,right,0.617458633158094,0.4158478717763501
AZN1997w,2019-05-15-11-26-49,3,7,0.5715842027238223,left,stripes-8,stripes-8,left,left,0.7840490026737825,0.7837986526510576
AZN1997w,2019-05-15-11-26-49,3,8,0.65940097952113,left,heavy poles sphere,heavy poles sphere,left,right,0.44739788362494437,0.4638370168477195
AZN1997w,2019-05-15-11-26-49,3,9,0.6556207543462385,left,stripes-4,stripes-8,right,left,0.8153878497205369,0.5517210708885614
AZN1997w,2019-05-15-11-26-49,3,10,0.5860185261369047,right,stripes-2,heavy poles sphere,right,right,0.768861308574742,0.5278485634262324
AZN1997w,2019-05-15-11-26-49,3,11,0.5354292919322795,right,stripes-2,stripes-8,right,left,0.5578585338880657,0.4318410398636843
AZN1997w,2019-05-15-11-26-49,3,12,0.5166240870513622,right,stripes-8,heavy poles sphere,right,right,0.11332676929032459,0.6476735485457539
AZN1997w,2019-05-15-11-26-49,3,13,0.524513616252805,right,stripes-4,stripes-2,right,right,0.3966069952466569,0.4639216071664123
AZN1997w,2019-05-15-11-26-49,3,14,0.570240077118689,right,heavy poles sphere,stripes-8,right,right,0.3393617411666128,0.6077904573412525
AZN1997w,2019-05-15-11-26-49,3,15,0.6520981270438218,right,stripes-2,stripes-4,right,right,0.5064947948967529,1.1756685900591037
AZN1997w,2019-05-15-11-26-49,3,16,0.6357782459786098,right,heavy poles sphere,stripes-4,right,right,0.37378440291377046,0.4478578434818701
AZN1997w,2019-05-15-11-26-49,3,17,0.5581667900371683,left,stripes-4,stripes-4,right,right,0.3651820029117516,0.5278308367787758
AZN1997w,2019-05-15-11-26-49,3,18,0.6126290929584073,left,stripes-2,stripes-2,right,right,0.37575517073855735,0.4798429356824272
AZN1997w,2019-05-15-11-26-49,3,19,0.5635952854558741,left,stripes-4,heavy poles sphere,left,right,0.2791297024596133,0.5118622372028767
AZN1997w,2019-05-15-11-26-49,3,20,0.5378160522308673,left,stripes-2,heavy poles sphere,left,right,0.6587138290860821,0.2558204048018524
AZN1997w,2019-05-15-11-26-49,3,21,0.5591965695300509,right,stripes-4,stripes-2,right,right,0.3660307050413394,0.3917225263394357
AZN1997w,2019-05-15-11-26-49,3,22,0.589222595555596,left,stripes-8,stripes-8,left,left,1.2865664976307016,0.28784001731582975
AZN1997w,2019-05-15-11-26-49,3,23,0.5990524815197408,left,heavy poles sphere,stripes-2,left,left,0.5106966323719462,0.4718242710769118
AZN1997w,2019-05-15-11-26-49,3,24,0.6551185345106081,left,stripes-8,stripes-2,left,right,0.3238599433116178,0.2719410803547362
AZN1997w,2019-05-15-11-26-49,3,25,0.5534817412967239,right,heavy poles sphere,stripes-8,right,right,0.3101112176091192,2.271758526983831
AZN1997w,2019-05-15-11-26-49,3,26,0.5951582345076571,right,stripes-8,heavy poles sphere,right,right,0.32535551258388296,0.5038171381229404
AZN1997w,2019-05-15-11-26-49,3,27,0.649115788609419,left,stripes-2,stripes-8,right,right,0.37660418386167294,0.4238509866900131
AZN1997w,2019-05-15-11-26-49,3,28,0.5327801922148742,left,heavy poles sphere,heavy poles sphere,left,left,0.3640493634266022,0.3919853161160063
AZN1997w,2019-05-15-11-26-49,3,29,0.5101716414193438,left,stripes-8,stripes-4,left,right,0.3283301684532489,0.3597100666829647
AZN1997w,2019-05-15-11-26-49,3,30,0.5354703126148433,left,stripes-2,stripes-4,left,right,0.34239797381360404,0.32784346312746493
AZN1997w,2019-05-15-11-26-49,3,31,0.5817736905906936,left,stripes-4,stripes-8,left,right,0.31523888368155895,0.29582851552095235
AZN1997w,2019-05-15-11-26-49,3,32,0.6258168276749569,right,stripes-8,heavy poles sphere,right,right,0.2981466634410026,0.3116786264517941
AZN1997w,2019-05-15-11-26-49,3,33,0.5488066663913668,right,heavy poles sphere,stripes-4,left,right,0.507629611338416,0.24781107001126657
AZN1997w,2019-05-15-11-26-49,3,34,0.5740228912662405,left,stripes-8,stripes-8,left,right,0.3650855948289973,0.23190404721117375
AZN1997w,2019-05-15-11-26-49,3,35,0.6583033763288302,left,stripes-2,stripes-2,left,right,0.4739710614030628,0.023745310991216684
AZN1997w,2019-05-15-11-26-49,3,36,0.5439123844526198,right,heavy poles sphere,stripes-8,right,right,0.5361928385591455,0.2478424803875896
AZN1997w,2019-05-15-11-26-49,3,37,0.6913107889372118,right,stripes-2,stripes-4,right,right,0.3801918085473517,0.35982326843350165
AZN1997w,2019-05-15-11-26-49,3,38,0.6665153880914463,left,heavy poles sphere,heavy poles sphere,left,left,0.33291639428807684,0.37583291919327166
AZN1997w,2019-05-15-11-26-49,3,39,0.5746409087698582,left,stripes-4,stripes-8,left,left,0.3125012051013982,0.33572280250245967
AZN1997w,2019-05-15-11-26-49,3,40,0.5122572273667162,right,stripes-2,heavy poles sphere,right,right,0.3219062801472319,0.2720210057659642
AZN1997w,2019-05-15-11-26-49,3,41,0.6401833580759257,right,stripes-8,stripes-4,right,right,0.279432299445034,0.2798325484882298
AZN1997w,2019-05-15-11-26-49,3,42,0.6129411884462366,right,stripes-8,stripes-2,right,left,0.4636457556498499,0.3118316354102717
AZN1997w,2019-05-15-11-26-49,3,43,0.5772362864248349,right,stripes-4,stripes-2,right,right,0.4963539084765216,0.3758447369582427
AZN1997w,2019-05-15-11-26-49,3,44,0.6819270594206732,left,stripes-4,stripes-4,right,right,0.3369384773368438,0.40784289089879167
AZN1997w,2019-05-15-11-26-49,3,45,0.5497510398407962,right,stripes-2,stripes-8,right,right,0.34773213978041895,0.24782568672162597
AZN1997w,2019-05-15-11-26-49,3,46,0.6047753687691889,left,stripes-4,heavy poles sphere,left,right,0.31592804598221846,0.21584246048314526
AZN1997w,2019-05-15-11-26-49,3,47,0.6497708383245075,left,heavy poles sphere,stripes-2,right,right,0.40484397751151846,0.25580827604335354
AZN1997w,2019-05-15-11-26-49,4,0,0.6566177382835414,right,heavy poles sphere,stripes-2,right,left,0.22927366149815498,0.2878334864453791
AZN1997w,2019-05-15-11-26-49,4,1,0.5716864196260869,left,heavy poles sphere,heavy poles sphere,right,left,0.5390284801915186,0.2238247388122545
AZN1997w,2019-05-15-11-26-49,4,2,0.5121179547198482,left,stripes-2,heavy poles sphere,right,right,0.3117398922340726,0.271828189599546
AZN1997w,2019-05-15-11-26-49,4,3,0.5341659768190329,left,stripes-8,stripes-4,right,right,0.0908111278558863,1.9676529109947296
AZN1997w,2019-05-15-11-26-49,4,4,0.6269191320136036,right,stripes-4,stripes-8,right,right,0.5409983150348125,0.3279510669890442
AZN1997w,2019-05-15-11-26-49,4,5,0.5478645754729653,left,stripes-8,heavy poles sphere,right,right,0.4290340096622458,0.3198145357264366
AZN1997w,2019-05-15-11-26-49,4,6,0.6848763099224874,left,stripes-4,stripes-4,right,left,0.3623597340138076,0.31195354498777306
AZN1997w,2019-05-15-11-26-49,4,7,0.5881742847621511,left,stripes-8,stripes-8,left,right,0.33445830163782375,0.2639855474953947
AZN1997w,2019-05-15-11-26-49,4,8,0.5838608359165048,right,stripes-2,stripes-4,right,right,0.31815880463909707,0.30367084663066635
AZN1997w,2019-05-15-11-26-49,4,9,0.6494705157043459,left,stripes-2,stripes-2,left,right,0.41015481894282857,0.30383163043461536
AZN1997w,2019-05-15-11-26-49,4,10,0.6348060489230601,left,stripes-2,stripes-8,right,right,1.2029576756076494,0.27970752897363127
AZN1997w,2019-05-15-11-26-49,4,11,0.5982663133644265,right,stripes-4,stripes-2,right,right,0.36570758246489277,0.24782195479565416
AZN1997w,2019-05-15-11-26-49,4,12,0.5874375244566725,left,stripes-8,stripes-2,right,right,0.380565623117036,0.2558241367278242
AZN1997w,2019-05-15-11-26-49,4,13,0.688951498918838,right,heavy poles sphere,stripes-4,right,right,0.8639737919284016,0.28782229066928267
AZN1997w,2019-05-15-11-26-49,4,14,0.5928550829359852,left,stripes-4,heavy poles sphere,left,left,0.31371532496632426,0.20787324389493733
AZN1997w,2019-05-15-11-26-49,4,15,0.6608244507244668,right,heavy poles sphere,stripes-8,right,right,0.2826688121094776,0.24789503834199422
AZN1997w,2019-05-15-11-26-49,4,16,0.6592638347027813,right,stripes-8,heavy poles sphere,right,right,0.4509761784956936,0.17569378055941343
AZN1997w,2019-05-15-11-26-49,4,17,0.6865770818228454,right,stripes-8,stripes-8,right,right,0.25362976434826123,0.23984029845451005
AZN1997w,2019-05-15-11-26-49,4,18,0.5290668673779728,right,stripes-2,stripes-8,right,right,0.3566576623588844,0.2558148069138042
AZN1997w,2019-05-15-11-26-49,4,19,0.5694395778013938,left,stripes-4,heavy poles sphere,left,left,0.44622916885691666,0.27194419029365235
AZN1997w,2019-05-15-11-26-49,4,20,0.5524475110122196,left,heavy poles sphere,stripes-4,left,left,0.4597253675792672,0.23981386398008908
AZN1997w,2019-05-15-11-26-49,4,21,0.5379436913463134,right,stripes-2,stripes-2,left,right,0.4332374021068972,0.23194540938948194
AZN1997w,2019-05-15-11-26-49,4,22,0.5352579517001904,left,stripes-4,stripes-2,left,left,0.37610472779033444,0.2638154338765162
AZN1997w,2019-05-15-11-26-49,4,23,0.5508042739070569,right,stripes-4,stripes-8,right,right,0.2716291535552955,0.2478406144236942
AZN1997w,2019-05-15-11-26-49,4,24,0.5032826435213135,right,stripes-8,stripes-2,right,left,0.34997907011620555,0.23985864708993176
AZN1997w,2019-05-15-11-26-49,4,25,0.6222949187800357,left,heavy poles sphere,stripes-2,left,right,0.5821707866089127,0.24794728530378052
AZN1997w,2019-05-15-11-26-49,4,26,0.5545493645361327,right,stripes-4,stripes-4,right,right,0.46154281545204867,0.27983006053818826
AZN1997w,2019-05-15-11-26-49,4,27,0.5387768432910583,right,stripes-2,stripes-4,right,left,0.5290489995632015,0.25580454411647224
AZN1997w,2019-05-15-11-26-49,4,28,0.518505460759103,left,heavy poles sphere,stripes-8,right,right,0.4692464433192072,0.2558362654872326
AZN1997w,2019-05-15-11-26-49,4,29,0.6274380333929646,left,stripes-8,stripes-4,right,right,0.23853225845505222,0.2558437293391762
AZN1997w,2019-05-15-11-26-49,4,30,0.5351308893606672,right,heavy poles sphere,heavy poles sphere,right,right,0.3189676995598347,0.23982474876356719
AZN1997w,2019-05-15-11-26-49,4,31,0.6888447780368657,left,stripes-2,heavy poles sphere,left,right,0.28512099836461857,0.20794757141811715
AZN1997w,2019-05-15-11-26-49,4,32,0.6339936265895153,right,stripes-4,stripes-2,right,right,0.3273648436415897,0.2558602120107025
AZN1997w,2019-05-15-11-26-49,4,33,0.6138772911314528,left,stripes-2,heavy poles sphere,left,right,0.2796555930053728,0.22381354303524859
AZN1997w,2019-05-15-11-26-49,4,34,0.5699123156884933,left,stripes-4,stripes-8,right,right,0.29188107098798355,0.287838773340809
AZN1997w,2019-05-15-11-26-49,4,35,0.6565201932684611,left,stripes-2,stripes-2,right,left,0.9533894905234774,0.2398141749736169
AZN1997w,2019-05-15-11-26-49,4,36,0.6065052296346576,left,stripes-2,stripes-4,right,right,0.6724295894446186,0.27196191694110894
AZN1997w,2019-05-15-11-26-49,4,37,0.5781731649438817,left,stripes-2,stripes-8,left,right,0.370326462650155,0.263831916548952
AZN1997w,2019-05-15-11-26-49,4,38,0.5064978511699971,left,stripes-8,stripes-2,right,left,0.36394020459647436,0.2718583559999388
AZN1997w,2019-05-15-11-26-49,4,39,0.5758465775515256,left,stripes-4,stripes-4,left,right,1.0747626028687591,0.22382660477433092
AZN1997w,2019-05-15-11-26-49,4,40,0.5287375573688878,right,heavy poles sphere,heavy poles sphere,right,right,0.5145147034763795,0.33580645983875
AZN1997w,2019-05-15-11-26-49,4,41,0.5379706356590643,left,stripes-8,stripes-4,right,right,0.2658953605323404,0.23996998287657334
AZN1997w,2019-05-15-11-26-49,4,42,0.5084805429152937,left,heavy poles sphere,stripes-8,right,right,0.2977302427179893,1.4476821319749433
AZN1997w,2019-05-15-11-26-49,4,43,0.546953162752909,left,heavy poles sphere,stripes-2,left,right,0.277006547664314,0.24770999702104746
AZN1997w,2019-05-15-11-26-49,4,44,0.6942528808786481,right,stripes-8,heavy poles sphere,right,right,0.35644058867455897,0.2638247636914457
AZN1997w,2019-05-15-11-26-49,4,45,0.5064230987458306,right,stripes-8,stripes-8,right,right,0.3268153175649786,0.2396717398050896
AZN1997w,2019-05-15-11-26-49,4,46,0.5626464076455453,right,stripes-4,heavy poles sphere,right,right,0.21762943096200615,0.2398558481454529
AZN1997w,2019-05-15-11-26-49,4,47,0.5100292465556269,left,heavy poles sphere,stripes-4,right,right,0.26004618880233465,0.19980793021841237
AZN1997w,2019-05-15-11-26-49,5,0,0.5396174935889159,left,stripes-2,stripes-8,right,right,0.26487530080885335,0.29585370601944305
AZN1997w,2019-05-15-11-26-49,5,1,0.6110622236338603,left,stripes-8,heavy poles sphere,right,right,0.30578778155086184,0.29584313223040226
AZN1997w,2019-05-15-11-26-49,5,2,0.5163836893404515,right,heavy poles sphere,heavy poles sphere,right,right,0.08612942691888748,0.31989850405716425
AZN1997w,2019-05-15-11-26-49,5,3,0.5788593937110708,right,stripes-2,stripes-4,right,right,0.4619343566682801,0.3117125247781587
AZN1997w,2019-05-15-11-26-49,5,4,0.607729038312314,left,stripes-4,stripes-2,right,right,0.47800434022974514,0.2716941512644553
AZN1997w,2019-05-15-11-26-49,5,5,0.6734414555369639,right,stripes-4,heavy poles sphere,right,right,0.26053071716978593,0.2639528931440509
AZN1997w,2019-05-15-11-26-49,5,6,0.5328843902866717,right,stripes-8,stripes-8,right,right,0.24145373438295792,0.247812002993669
AZN1997w,2019-05-15-11-26-49,5,7,0.6650130957181845,right,heavy poles sphere,stripes-2,right,right,0.29108928072673734,0.24782288777623762
AZN1997w,2019-05-15-11-26-49,5,8,0.6874878473150597,left,stripes-8,stripes-4,right,right,0.2652985633958451,1.895773842808012
AZN1997w,2019-05-15-11-26-49,5,9,0.6517467425601331,left,stripes-8,stripes-2,right,right,0.15003025969872397,1.5358009863475672
AZN1997w,2019-05-15-11-26-49,5,10,0.6475375940166203,left,heavy poles sphere,stripes-8,right,right,0.6880256184267637,0.3038434481995864
AZN1997w,2019-05-15-11-26-49,5,11,0.6512423868665199,right,stripes-4,stripes-8,right,right,0.49332327372030704,0.25582444772135204
AZN1997w,2019-05-15-11-26-49,5,12,0.6511518382143973,left,stripes-2,stripes-2,left,right,0.30071920430327737,0.23168261961291137
AZN1997w,2019-05-15-11-26-49,5,13,0.6139653010178328,left,stripes-4,stripes-4,right,left,0.26150848173438135,0.27986240389509476
AZN1997w,2019-05-15-11-26-49,5,14,0.6740860512119115,right,heavy poles sphere,stripes-4,right,right,0.2610077816880221,0.26389971320168115
AZN1997w,2019-05-15-11-26-49,5,15,0.6025197665294394,right,stripes-2,heavy poles sphere,right,right,0.3280163756908223,0.27191495687475253
AZN1997w,2019-05-15-11-26-49,5,16,0.5070118371347945,right,stripes-8,stripes-8,right,right,0.3148722219702904,0.2638648818938236
AZN1997w,2019-05-15-11-26-49,5,17,0.5406784487133364,right,stripes-2,stripes-8,right,right,0.34117576810876926,0.29593643037605943
AZN1997w,2019-05-15-11-26-49,5,18,0.6452086037560496,right,stripes-2,heavy poles sphere,right,left,0.24999828953423275,0.2319482083330513
AZN1997w,2019-05-15-11-26-49,5,19,0.690150469900266,right,stripes-4,stripes-8,right,left,0.4103124928078614,0.2477143509340749
AZN1997w,2019-05-15-11-26-49,5,20,0.6799951382865617,right,stripes-8,heavy poles sphere,right,right,0.22830522674848908,0.24795723710576567
AZN1997w,2019-05-15-11-26-49,5,21,0.590064546868921,left,stripes-2,stripes-4,right,right,0.5845900075200916,0.24779147740082408
AZN1997w,2019-05-15-11-26-49,5,22,0.6106016983410243,left,stripes-8,stripes-4,right,right,0.5500221116599278,0.3437679015814865
AZN1997w,2019-05-15-11-26-49,5,23,0.6569908572055717,right,heavy poles sphere,stripes-2,right,left,0.25597465773626027,0.2157168189814911
AZN1997w,2019-05-15-11-26-49,5,24,0.6720451964057794,left,stripes-8,stripes-2,right,right,0.5454197141471013,0.2718400073645171
AZN1997w,2019-05-15-11-26-49,5,25,0.6292889287495356,left,stripes-4,heavy poles sphere,left,right,0.31156044880117406,0.19970872319026967
AZN1997w,2019-05-15-11-26-49,5,26,0.554062703083358,right,heavy poles sphere,stripes-4,right,right,0.3092510087089977,0.9356815025230389
AZN1997w,2019-05-15-11-26-49,5,27,0.5882232131067581,left,heavy poles sphere,stripes-8,right,right,2.8280020699749002,0.9278177128398966
AZN1997w,2019-05-15-11-26-49,5,28,0.5742769971323289,right,stripes-2,stripes-2,right,right,0.37171225110432715,0.7279631335486556
AZN1997w,2019-05-15-11-26-49,5,29,0.649407739659774,left,stripes-4,stripes-4,right,left,0.32409101171833754,0.3439765784332849
AZN1997w,2019-05-15-11-26-49,5,30,0.5787932338704563,left,stripes-4,stripes-2,left,right,0.3369409652877948,0.2638306725739312
AZN1997w,2019-05-15-11-26-49,5,31,0.5782292606364072,right,heavy poles sphere,heavy poles sphere,right,left,0.3318602592817115,0.3198907292116928
AZN1997w,2019-05-15-11-26-49,5,32,0.6873033176834249,left,stripes-8,stripes-4,left,left,0.3172796251155887,0.27984965314863075
AZN1997w,2019-05-15-11-26-49,5,33,0.6829219424979879,right,stripes-2,stripes-8,right,right,0.30487936860845366,0.26371000697236013
AZN1997w,2019-05-15-11-26-49,5,34,0.5406339787965619,left,heavy poles sphere,heavy poles sphere,left,left,0.4057244010109571,0.2959631758440082
AZN1997w,2019-05-15-11-26-49,5,35,0.5830577766092023,left,stripes-4,stripes-2,left,right,0.3371801195335138,0.25580454411738174
AZN1997w,2019-05-15-11-26-49,5,36,0.5465942120295361,left,heavy poles sphere,stripes-2,left,right,0.315453158422315,0.20794415048567316
AZN1997w,2019-05-15-11-26-49,5,37,0.624606418059463,left,stripes-8,stripes-2,left,left,0.3483354677873649,0.3759700674663691
AZN1997w,2019-05-15-11-26-49,5,38,0.5699395801940719,left,stripes-2,stripes-4,right,right,0.3278108087770306,0.24780951504271798
AZN1997w,2019-05-15-11-26-49,5,39,0.5599170478905445,left,stripes-8,stripes-8,right,left,0.16139086387283896,0.27197995458300284
AZN1997w,2019-05-15-11-26-49,5,40,0.638906665616492,right,stripes-4,stripes-8,right,right,0.2936873230828496,0.2639261476761021
AZN1997w,2019-05-15-11-26-49,5,41,0.5164855774090199,right,stripes-4,heavy poles sphere,right,right,0.04346542899384076,0.2878552560132448
AZN1997w,2019-05-15-11-26-49,5,42,0.6633886272385741,left,stripes-2,stripes-2,right,right,0.9623486004338702,0.27983876836515265
AZN1997w,2019-05-15-11-26-49,5,43,0.5637242484179161,left,stripes-2,heavy poles sphere,left,left,0.3455530060973615,0.2797314754980107
AZN1997w,2019-05-15-11-26-49,5,44,0.5516854502095313,left,stripes-8,heavy poles sphere,left,left,0.30708493676593207,0.2717501301503944
AZN1997w,2019-05-15-11-26-49,5,45,0.5061512819954098,right,heavy poles sphere,stripes-4,left,left,0.4399666863428138,0.2558288016343795
AZN1997w,2019-05-15-11-26-49,5,46,0.5170103452701476,right,stripes-4,stripes-4,left,left,1.0381353059465255,0.2159674799986533
AZN1997w,2019-05-15-11-26-49,5,47,0.5857302541356711,right,heavy poles sphere,stripes-8,right,right,0.27595072365147644,0.2637504361691754
AZN1997w,2019-05-15-11-26-49,6,0,0.5324811196737933,right,stripes-2,stripes-4,right,left,0.7068360795119588,0.2638555520798036
AZN1997w,2019-05-15-11-26-49,6,1,0.587283650246418,right,stripes-8,heavy poles sphere,right,right,0.3247913697969125,0.2558219597713105
AZN1997w,2019-05-15-11-26-49,6,2,0.5190240243950849,left,stripes-8,stripes-2,left,left,0.37579124602143565,0.2719612949531438
AZN1997w,2019-05-15-11-26-49,6,3,0.6152990921653589,left,stripes-8,stripes-8,left,left,0.29190812745036965,0.26387047978278133
AZN1997w,2019-05-15-11-26-49,6,4,0.5050175781491912,left,heavy poles sphere,stripes-8,left,left,0.40155272993524704,0.2718508921479952
AZN1997w,2019-05-15-11-26-49,6,5,0.6128747854746006,right,stripes-2,stripes-8,left,left,0.30100905054223404,0.25582631368433795
AZN1997w,2019-05-15-11-26-49,6,6,0.6380206395953898,left,heavy poles sphere,stripes-4,left,left,0.29322269831936865,0.23997495877756592
AZN1997w,2019-05-15-11-26-49,6,7,0.6353351039289331,right,stripes-4,stripes-2,right,right,0.10959919738706958,0.2797100169236728
AZN1997w,2019-05-15-11-26-49,6,8,0.6700722237908274,left,stripes-2,heavy poles sphere,right,right,0.4431030589976217,0.2558088980304092
AZN1997w,2019-05-15-11-26-49,6,9,0.6316846224397468,right,heavy poles sphere,stripes-2,right,right,0.19003619346040068,0.255841552381753
AZN1997w,2019-05-15-11-26-49,6,10,0.5820480966261286,right,stripes-4,stripes-8,right,right,0.299549867548194,0.263819165802488
AZN1997w,2019-05-15-11-26-49,6,11,0.5722040779010908,left,stripes-2,stripes-2,right,left,0.6932593333913246,0.23169910228534718
AZN1997w,2019-05-15-11-26-49,6,12,0.6849322231989097,left,stripes-4,heavy poles sphere,left,left,0.23646508254660148,0.23172242682176147
AZN1997w,2019-05-15-11-26-49,6,13,0.5230976533868936,left,stripes-8,stripes-4,left,left,0.3240269469924897,0.25582102678981755
AZN1997w,2019-05-15-11-26-49,6,14,0.5540188005647524,right,stripes-4,stripes-4,right,right,0.30973336011993524,0.2797174807756164
AZN1997w,2019-05-15-11-26-49,6,15,0.6918053888817088,left,heavy poles sphere,heavy poles sphere,right,right,0.15578177937004511,0.43173623494658386
AZN1997w,2019-05-15-11-26-49,6,16,0.6227733988170243,left,stripes-8,stripes-4,left,left,0.32264333549574076,0.2638443563018882
AZN1997w,2019-05-15-11-26-49,6,17,0.6090401811868575,left,stripes-2,stripes-2,left,right,0.2575277608630131,0.2558232037463313
AZN1997w,2019-05-15-11-26-49,6,18,0.6034438095121852,left,stripes-4,heavy poles sphere,left,right,0.22911318868773378,0.20796529806557373
AZN1997w,2019-05-15-11-26-49,6,19,0.6722217799833932,left,heavy poles sphere,stripes-8,left,left,0.3287590289282889,0.23980080224009725
AZN1997w,2019-05-15-11-26-49,6,20,0.5361290271794084,right,stripes-8,stripes-2,right,left,0.48368091039083083,0.22381820794180385
AZN1997w,2019-05-15-11-26-49,6,21,0.6590565399097446,left,stripes-8,stripes-8,left,left,0.3557508043859343,0.21585085731658182
AZN1997w,2019-05-15-11-26-49,6,22,0.5688081500130748,left,heavy poles sphere,stripes-4,left,left,0.3421280311786177,0.23169008346485498
AZN1997w,2019-05-15-11-26-49,6,23,0.6969965824507094,right,stripes-4,stripes-8,right,right,0.31413205668286537,0.25584466231975966
AZN1997w,2019-05-15-11-26-49,6,24,0.5513997751426479,left,heavy poles sphere,heavy poles sphere,right,right,2.166374539806384,0.3679514028626727
AZN1997w,2019-05-15-11-26-49,6,25,0.5803791756918348,left,heavy poles sphere,stripes-2,left,right,0.6643129617868908,0.22382536079931015
AZN1997w,2019-05-15-11-26-49,6,26,0.6063695549292755,left,stripes-4,stripes-4,left,left,0.2351309190680695,0.2477087530451172
AZN1997w,2019-05-15-11-26-49,6,27,0.5669806940768751,left,stripes-8,heavy poles sphere,left,left,0.5533628072544161,0.2638288066109453
AZN1997w,2019-05-15-11-26-49,6,28,0.663171448908174,left,stripes-2,stripes-4,right,right,0.012643764666790958,0.39197038841302856
AZN1997w,2019-05-15-11-26-49,6,29,0.6089148645416997,left,stripes-2,stripes-8,left,left,0.3551067361877358,0.40769112591624435
AZN1997w,2019-05-15-11-26-49,6,30,0.560170777960181,right,stripes-4,stripes-2,left,left,0.7808865065380814,0.3278213825660714
AZN1997w,2019-05-15-11-26-49,6,31,0.5370616611379813,left,stripes-2,heavy poles sphere,left,right,0.26772960207108554,0.20769317847498314
AZN1997w,2019-05-15-11-26-49,6,32,0.5494996894298689,left,stripes-2,stripes-2,right,left,0.2899289627921462,0.23982474876356719
AZN1997w,2019-05-15-11-26-49,6,33,0.6885915428922154,left,heavy poles sphere,heavy poles sphere,left,left,0.34616846286371583,0.23985180522595329
AZN1997w,2019-05-15-11-26-49,6,34,0.5976585123484265,left,stripes-8,stripes-2,left,left,0.2657168500800253,0.23993546256224363
AZN1997w,2019-05-15-11-26-49,6,35,0.5425974895043434,right,stripes-4,stripes-8,left,left,0.2866865412452171,0.21582286787361227
AZN1997w,2019-05-15-11-26-49,6,36,0.5491293212716191,right,heavy poles sphere,stripes-2,left,right,0.31699662074152,0.2078511633344533
AZN1997w,2019-05-15-11-26-49,6,37,0.5372049060596382,left,stripes-4,stripes-2,left,left,0.3300157549474534,0.23186952689775353
AZN1997w,2019-05-15-11-26-49,6,38,0.5088345950718044,right,stripes-8,stripes-8,left,left,2.1423434254966196,0.23969008844051132
AZN1997w,2019-05-15-11-26-49,6,39,0.5005792297011173,left,stripes-2,heavy poles sphere,right,right,0.2584641632493003,0.23996158604313678
AZN1997w,2019-05-15-11-26-49,6,40,0.6724005666387967,right,stripes-2,stripes-8,right,right,0.26679755359782575,0.2238353126012953
AZN1997w,2019-05-15-11-26-49,6,41,0.6397317971039742,left,stripes-8,stripes-4,left,right,0.15631979867430346,0.20779456245963956
AZN1997w,2019-05-15-11-26-49,6,42,0.5849302555837256,left,stripes-8,heavy poles sphere,left,left,0.5426705287954974,0.2558527481587589
AZN1997w,2019-05-15-11-26-49,6,43,0.5385224464760747,left,stripes-4,stripes-4,left,right,0.6081005181777073,0.25582444772135204
AZN1997w,2019-05-15-11-26-49,6,44,0.5296976397783676,right,stripes-2,stripes-4,right,right,0.8235178501117844,0.2719180668127592
AZN1997w,2019-05-15-11-26-49,6,45,0.5084776519663782,left,heavy poles sphere,stripes-4,left,left,0.4153798260804251,0.2477970752897818
AZN1997w,2019-05-15-11-26-49,6,46,0.5927041232439908,right,stripes-4,heavy poles sphere,right,right,0.14883728741187952,0.26383813642587484
AZN1997w,2019-05-15-11-26-49,6,47,0.5599106089883059,right,heavy poles sphere,stripes-8,right,right,0.0939885516954746,2.1358436546997837
AZN1997w,2019-05-15-11-26-49,7,0,0.550153261184295,left,heavy poles sphere,stripes-2,left,left,0.36361708201911824,0.4239884459575478
AZN1997w,2019-05-15-11-26-49,7,1,0.5604752556073143,left,stripes-2,stripes-4,left,left,0.5723284542546025,0.3358316503381502
AZN1997w,2019-05-15-11-26-49,7,2,0.597796666428182,right,stripes-2,stripes-8,right,right,0.4069637113761928,0.3358011729442296
AZN1997w,2019-05-15-11-26-49,7,3,0.5814119561473904,left,stripes-4,stripes-2,left,right,0.3457315165487671,0.3038428262125308
AZN1997w,2019-05-15-11-26-49,7,4,0.5411357567213722,right,stripes-4,stripes-4,right,right,0.25726528207997035,2.0797748902350577
AZN1997w,2019-05-15-11-26-49,7,5,0.5524823120490888,right,stripes-8,stripes-8,right,right,0.35522646880781394,2.207774969849197
AZN1997w,2019-05-15-11-26-49,7,6,0.5374939445736502,right,heavy poles sphere,heavy poles sphere,right,right,0.30270241188100044,0.391951728784079
AZN1997w,2019-05-15-11-26-49,7,7,0.6934493424363992,left,stripes-4,stripes-8,right,right,0.3338891829507702,4.103797607711385
AZN1997w,2019-05-15-11-26-49,7,8,0.6729783728637219,left,stripes-4,heavy poles sphere,left,right,0.5744550299823459,0.29573863830682967
AZN1997w,2019-05-15-11-26-49,7,9,0.5934520791998951,left,stripes-2,stripes-2,right,left,0.7302847024002403,0.2637905543706438
AZN1997w,2019-05-15-11-26-49,7,10,0.5985941103444815,right,stripes-2,heavy poles sphere,right,right,0.4108769465883597,0.2959507360919815
AZN1997w,2019-05-15-11-26-49,7,11,0.6638345654702833,left,heavy poles sphere,stripes-8,right,right,0.2842738512035794,0.2799693857687089
AZN1997w,2019-05-15-11-26-49,7,12,0.6807594743869249,left,heavy poles sphere,stripes-4,right,right,0.2024970937627586,0.30395416199917236
AZN1997w,2019-05-15-11-26-49,7,13,0.652193984278916,right,stripes-8,stripes-4,right,right,0.29148641983283596,0.25583502151130233
AZN1997w,2019-05-15-11-26-49,7,14,0.6787009590170158,right,stripes-8,stripes-2,right,right,0.25753584670292184,0.2639920783658454
AZN1997w,2019-05-15-11-26-49,7,15,0.6599076410308585,left,stripes-8,heavy poles sphere,right,right,0.2984421075680075,0.25581511790642253
AZN1997w,2019-05-15-11-26-49,7,16,0.6417456922421783,left,stripes-2,stripes-8,right,right,0.5133102244199108,0.2718238356856091
AZN1997w,2019-05-15-11-26-49,7,17,0.6131877098402324,right,stripes-4,stripes-4,right,right,0.16801627617223858,0.2638194767960158
AZN1997w,2019-05-15-11-26-49,7,18,0.692042825569885,right,stripes-2,heavy poles sphere,right,right,0.2989076653138909,0.24785647510907438
AZN1997w,2019-05-15-11-26-49,7,19,0.5638087619429843,right,heavy poles sphere,stripes-4,right,right,0.47054079958979855,0.22383126968270517
AZN1997w,2019-05-15-11-26-49,7,20,0.5456074829918587,right,stripes-8,heavy poles sphere,right,right,0.3568772239950704,0.2316851075629529
AZN1997w,2019-05-15-11-26-49,7,21,0.5818136288870183,left,stripes-2,stripes-4,left,right,0.0689625681616235,0.38382670429291466
AZN1997w,2019-05-15-11-26-49,7,22,0.5434697894406227,right,heavy poles sphere,heavy poles sphere,right,right,0.3667068056020071,0.27194263532419427
AZN1997w,2019-05-15-11-26-49,7,23,0.506362296220748,right,stripes-8,stripes-4,right,right,0.47160097751657304,0.2638468442519297
AZN1997w,2019-05-15-11-26-49,7,24,0.6095542460995915,left,stripes-4,heavy poles sphere,left,left,0.28967954574909527,0.29595757795596
AZN1997w,2019-05-15-11-26-49,7,25,0.6822446940871697,right,stripes-8,stripes-8,right,right,0.2859547727912286,0.30370661092001683
AZN1997w,2019-05-15-11-26-49,7,26,0.601874288561404,left,stripes-4,stripes-2,left,right,0.2853554877037823,0.2639740407239515
AZN1997w,2019-05-15-11-26-49,7,27,0.5504732155555698,left,stripes-2,stripes-2,left,left,0.48042480511594476,0.30371936166648084
AZN1997w,2019-05-15-11-26-49,7,28,0.6211478139500423,left,heavy poles sphere,stripes-2,right,right,0.5197353567009486,0.27178527245177975
AZN1997w,2019-05-15-11-26-49,7,29,0.6958487311938861,right,stripes-8,stripes-2,right,right,0.0029765218332613586,0.3119650517592163
AZN1997w,2019-05-15-11-26-49,7,30,0.6952402541805571,left,stripes-4,stripes-8,right,left,0.35465299620773294,2.7757544865526143
AZN1997w,2019-05-15-11-26-49,7,31,0.5510018951336814,left,heavy poles sphere,stripes-8,left,left,0.38142676499865047,0.3918235993305643
AZN1997w,2019-05-15-11-26-49,7,32,0.5111723459401046,right,heavy poles sphere,stripes-2,right,right,0.3462835305763292,0.3358605727635222
AZN1997w,2019-05-15-11-26-49,7,33,0.677987574264092,right,heavy poles sphere,stripes-8,right,right,0.3396811318179971,0.23993981647618057
AZN1997w,2019-05-15-11-26-49,7,34,0.6446930129342976,left,stripes-4,stripes-4,left,right,0.2980471454193321,0.23971714490289742
AZN1997w,2019-05-15-11-26-49,7,35,0.5029164860067229,left,heavy poles sphere,heavy poles sphere,left,left,0.29840323333974084,0.29570411799340945
AZN1997w,2019-05-15-11-26-49,7,36,0.6857768734347203,left,stripes-2,heavy poles sphere,left,right,0.27904013623992796,0.24795132822328014
AZN1997w,2019-05-15-11-26-49,7,37,0.5797127405016911,right,stripes-4,stripes-8,right,right,0.2661422896235308,0.2558689198376669
AZN1997w,2019-05-15-11-26-49,7,38,0.5742786719209038,left,stripes-8,stripes-2,left,left,0.48505177114111575,0.26371529386779
AZN1997w,2019-05-15-11-26-49,7,39,0.6177516974088021,left,stripes-2,stripes-4,right,right,0.4296905176115615,0.24794386437133653
AZN1997w,2019-05-15-11-26-49,7,40,0.6748015990287719,left,stripes-2,stripes-2,right,left,0.4624179520560574,0.5118466875110244
AZN1997w,2019-05-15-11-26-49,7,41,0.5137730939005063,left,stripes-4,stripes-2,left,left,0.2817243238841911,0.26395164916903013
AZN1997w,2019-05-15-11-26-49,7,42,0.5433624667640797,right,stripes-4,heavy poles sphere,right,right,0.3028532438838738,0.24770253316910384
AZN1997w,2019-05-15-11-26-49,7,43,0.6714301670411604,left,stripes-8,stripes-4,left,left,0.2841671803253121,0.24785616411554656
AZN1997w,2019-05-15-11-26-49,7,44,0.6303211342881443,right,heavy poles sphere,stripes-4,right,right,0.2777709704687368,0.2478424803875896
AZN1997w,2019-05-15-11-26-49,7,45,0.5104550686120245,right,stripes-8,heavy poles sphere,right,right,0.2928174733742708,0.24794915126676642
AZN1997w,2019-05-15-11-26-49,7,46,0.6754769906909214,left,stripes-2,stripes-8,right,right,0.39492047577095946,0.23982599273858796
AZN1997w,2019-05-15-11-26-49,7,47,0.590716020910955,right,stripes-8,stripes-8,left,left,0.06517497445202025,1.9117806946233031
AZN1997w,2019-05-15-11-26-49,8,0,0.6915649885285914,right,heavy poles sphere,stripes-8,right,right,1.1794138886107248,1.5038043873764764
AZN1997w,2019-05-15-11-26-49,8,1,0.6159521032346894,right,stripes-8,stripes-2,right,left,0.4684736236813478,0.2319575381479808
AZN1997w,2019-05-15-11-26-49,8,2,0.6028663061310154,right,stripes-8,stripes-8,right,right,0.33537759936371003,0.23967671570608218
AZN1997w,2019-05-15-11-26-49,8,3,0.5201684720017531,right,stripes-4,stripes-8,right,right,0.522841251961836,0.2399080951072392
AZN1997w,2019-05-15-11-26-49,8,4,0.5530083969743356,right,heavy poles sphere,heavy poles sphere,right,right,0.5189444994211954,0.23986579994743806
AZN1997w,2019-05-15-11-26-49,8,5,0.6123615864425973,left,stripes-4,stripes-2,right,left,0.39907908510667767,0.28779119128648745
AZN1997w,2019-05-15-11-26-49,8,6,0.6043313733932593,left,heavy poles sphere,stripes-4,right,right,0.3078409627369183,1.135930732968518
AZN1997w,2019-05-15-11-26-49,8,7,0.5187027972129623,left,stripes-8,stripes-4,right,right,0.4755403362087236,0.2557787316300164
AZN1997w,2019-05-15-11-26-49,8,8,0.6056011182929655,left,stripes-8,heavy poles sphere,right,right,0.3101995398537838,0.24799082443860243
AZN1997w,2019-05-15-11-26-49,8,9,0.5544448685336794,right,stripes-4,heavy poles sphere,right,right,0.31392275784310186,0.23971901086497382
AZN1997w,2019-05-15-11-26-49,8,10,0.6827979615436418,left,stripes-2,stripes-2,left,right,0.2872911132271838,0.2798275725881467
AZN1997w,2019-05-15-11-26-49,8,11,0.6090092797199957,right,stripes-2,stripes-4,right,right,0.2956260585451673,0.3037314904249797
AZN1997w,2019-05-15-11-26-49,8,12,0.544032911250573,right,stripes-4,stripes-4,right,right,0.20110290847605938,0.27186861879545177
AZN1997w,2019-05-15-11-26-49,8,13,0.5835300058484176,left,stripes-2,heavy poles sphere,right,right,0.21475802503937302,0.25586580989966023
AZN1997w,2019-05-15-11-26-49,8,14,0.6884017681946597,left,heavy poles sphere,stripes-2,right,right,0.4003706424318807,0.25582102678981755
AZN1997w,2019-05-15-11-26-49,8,15,0.6467405710982176,right,stripes-2,stripes-8,right,right,0.1630826702421473,0.23983159062845516
AZN1997w,2019-05-15-11-26-49,8,16,0.5965144130781638,left,heavy poles sphere,stripes-4,right,left,0.24415595966729597,0.22383437962071184
AZN1997w,2019-05-15-11-26-49,8,17,0.5849586135180544,left,stripes-4,heavy poles sphere,left,left,0.2991909806823969,0.23183345161396574
AZN1997w,2019-05-15-11-26-49,8,18,0.5152044437339313,left,stripes-2,stripes-8,right,right,0.37696835762289993,0.2636981892073891
AZN1997w,2019-05-15-11-26-49,8,19,0.5224394160662683,left,stripes-8,heavy poles sphere,left,left,0.2984657430979496,0.22380856713334651
AZN1997w,2019-05-15-11-26-49,8,20,0.6882308870882583,left,stripes-2,heavy poles sphere,right,right,0.34615602311077964,4.199511864103442
AZN1997w,2019-05-15-11-26-49,8,21,0.5274086091844693,right,stripes-2,stripes-2,right,right,0.41976390593299584,0.271647813184245
AZN1997w,2019-05-15-11-26-49,8,22,0.672486697621931,left,heavy poles sphere,heavy poles sphere,left,left,0.1904205818191258,0.3038232336020883
AZN1997w,2019-05-15-11-26-49,8,23,0.6746590258260687,right,heavy poles sphere,stripes-2,right,left,0.6479671267097729,0.2959504250975442
AZN1997w,2019-05-15-11-26-49,8,24,0.671687950931557,right,stripes-8,stripes-2,right,right,0.3098502937955345,0.2637998841864828
AZN1997w,2019-05-15-11-26-49,8,25,0.6055561940315367,right,stripes-8,stripes-4,right,left,0.3253144613991026,0.2959992511268865
AZN1997w,2019-05-15-11-26-49,8,26,0.5995614430719725,left,stripes-4,stripes-4,left,left,0.37166155911199894,0.2558325335612608
AZN1997w,2019-05-15-11-26-49,8,27,0.6260752344091085,left,stripes-4,stripes-2,left,left,0.3603755934536821,0.26382538567941083
AZN1997w,2019-05-15-11-26-49,8,28,0.5116202532347108,left,stripes-8,stripes-8,left,left,0.16200756461330457,2.7116987788513143
AZN1997w,2019-05-15-11-26-49,8,29,0.5004296863381972,left,heavy poles sphere,stripes-8,left,right,0.28907310780414264,0.3117147017355819
AZN1997w,2019-05-15-11-26-49,8,30,0.5676725170963975,right,stripes-2,stripes-4,right,right,0.36920253099197,0.27983721339569456
AZN1997w,2019-05-15-11-26-49,8,31,0.6842785512877643,left,stripes-4,stripes-8,left,left,0.49073207322726375,0.319829152436796
AZN1997w,2019-05-15-11-26-49,8,32,0.5919375432718419,left,heavy poles sphere,heavy poles sphere,right,right,0.2273517197027104,0.24784030343107588
AZN1997w,2019-05-15-11-26-49,8,33,0.5594158991653104,left,stripes-8,stripes-8,left,left,0.3129860444632868,0.3039563389556861
AZN1997w,2019-05-15-11-26-49,8,34,0.5280272077885028,left,stripes-4,stripes-4,left,right,0.3139342646145451,0.34392215451498487
AZN1997w,2019-05-15-11-26-49,8,35,0.6735367780771215,left,stripes-2,stripes-2,left,right,0.31534182263476396,0.2319267497596229
AZN1997w,2019-05-15-11-26-49,8,36,0.5262656826330849,right,stripes-2,stripes-4,right,right,0.28829593425416533,0.24004617636182957
AZN1997w,2019-05-15-11-26-49,8,37,0.6278579173451433,right,stripes-8,heavy poles sphere,right,left,0.25786985406284657,0.25584466231975966
AZN1997w,2019-05-15-11-26-49,8,38,0.5775759776270739,left,stripes-2,heavy poles sphere,right,right,0.3021808752482684,0.2878403283093576
AZN1997w,2019-05-15-11-26-49,8,39,0.6599624612252605,right,heavy poles sphere,stripes-8,right,left,0.22836182762330282,0.2798434332717079
AZN1997w,2019-05-15-11-26-49,8,40,0.6410418998580936,left,stripes-4,stripes-2,left,right,0.3339286791660925,0.27996316589178605
AZN1997w,2019-05-15-11-26-49,8,41,0.5144071724302182,right,stripes-8,stripes-4,right,right,0.7435187333339854,0.2718076640067011
AZN1997w,2019-05-15-11-26-49,8,42,0.5517704341092928,right,stripes-4,stripes-8,right,right,0.2955405352458911,0.239705949124982
AZN1997w,2019-05-15-11-26-49,8,43,0.5805351007804567,right,heavy poles sphere,stripes-4,right,right,0.4750318613168929,0.2799728067002434
AZN1997w,2019-05-15-11-26-49,8,44,0.5071298327023132,right,stripes-4,heavy poles sphere,right,right,0.3045394523642244,0.27181263990860316
AZN1997w,2019-05-15-11-26-49,8,45,0.5298135350127264,right,stripes-8,stripes-2,right,left,0.24425485570191086,0.24769133739209792
AZN1997w,2019-05-15-11-26-49,8,46,0.684805695261515,left,stripes-2,stripes-8,right,right,0.3005254551544567,0.2156375155573187
AZN1997w,2019-05-15-11-26-49,8,47,0.6633816317902805,right,heavy poles sphere,stripes-2,right,left,0.3414071475081073,0.231728335704247
AZN1997w,2019-05-15-11-26-49,9,0,0.5394527421103756,right,stripes-4,stripes-2,right,right,0.3664853780037447,0.27194201333622914
AZN1997w,2019-05-15-11-26-49,9,1,0.627787338515932,left,stripes-8,heavy poles sphere,left,left,0.3401541534158241,0.2637202697687826
AZN1997w,2019-05-15-11-26-49,9,2,0.6491521673154208,left,stripes-2,heavy poles sphere,left,right,0.3143438434735799,0.32768330131057155
AZN1997w,2019-05-15-11-26-49,9,3,0.6812978329663526,left,stripes-4,heavy poles sphere,left,left,0.2689263062829923,0.4237449377978919
AZN1997w,2019-05-15-11-26-49,9,4,0.6065878274082006,left,heavy poles sphere,heavy poles sphere,right,right,0.3618074089927177,0.2558166728758806
AZN1997w,2019-05-15-11-26-49,9,5,0.6268296200379363,right,stripes-2,stripes-2,right,right,0.46261543313084985,0.2718188597846165
AZN1997w,2019-05-15-11-26-49,9,6,0.6451634014767486,left,heavy poles sphere,stripes-4,right,right,0.09531836126188864,0.335871146552563
AZN1997w,2019-05-15-11-26-49,9,7,0.6147132747545253,left,heavy poles sphere,stripes-2,right,left,0.23771745465182903,0.2958170087495091
AZN1997w,2019-05-15-11-26-49,9,8,0.5133143542723576,right,stripes-4,stripes-8,right,right,0.28268653875693417,0.28784126129176
AZN1997w,2019-05-15-11-26-49,9,9,0.5974642546888536,right,stripes-8,stripes-8,right,right,0.19560360479135852,0.25583564349835797
AZN1997w,2019-05-15-11-26-49,9,10,0.6897719490334865,right,heavy poles sphere,stripes-8,right,right,0.2858717374410844,0.2718602219629247
AZN1997w,2019-05-15-11-26-49,9,11,0.6017836201488627,right,stripes-2,stripes-4,left,right,0.4707404576211047,0.27995756800373783
AZN1997w,2019-05-15-11-26-49,9,12,0.5462214680098755,right,stripes-8,stripes-2,right,left,0.28150725019895617,0.2798148218407732
AZN1997w,2019-05-15-11-26-49,9,13,0.6612271860806894,right,stripes-4,stripes-4,right,right,0.43965444854893576,0.3359448520886872
AZN1997w,2019-05-15-11-26-49,9,14,0.5615136394491324,left,stripes-2,stripes-8,right,right,0.6090928994508431,0.23983314559609425
AZN1997w,2019-05-15-11-26-49,9,15,0.6828269474014391,right,stripes-8,stripes-4,right,left,0.3063606321638872,0.26382072077194607
AZN1997w,2019-05-15-11-26-49,9,16,0.587245973757916,left,heavy poles sphere,stripes-4,right,right,0.3245596794031371,0.9278419703568943
AZN1997w,2019-05-15-11-26-49,9,17,0.6425017006646361,right,heavy poles sphere,stripes-8,right,right,0.6962013349102563,0.3039438992036594
AZN1997w,2019-05-15-11-26-49,9,18,0.5933880216522519,left,stripes-8,stripes-4,right,right,0.2794665087649264,0.24782848566519533
AZN1997w,2019-05-15-11-26-49,9,19,0.5500219480756062,left,stripes-8,stripes-8,left,right,0.643724549043327,0.27991278489298566
AZN1997w,2019-05-15-11-26-49,9,20,0.5982375290473532,right,heavy poles sphere,heavy poles sphere,left,left,0.5996934222948767,0.2719556970641861
AZN1997w,2019-05-15-11-26-49,9,21,0.6340211074820583,right,stripes-2,stripes-2,left,left,0.5141418218890976,0.23997589175905887
AZN1997w,2019-05-15-11-26-49,9,22,0.5373607172956666,left,stripes-4,stripes-8,left,left,0.3977670021877202,0.25582600269081013
AZN1997w,2019-05-15-11-26-49,9,23,0.6132125358249978,right,stripes-2,heavy poles sphere,left,left,0.4192622729042341,0.26397217476187507
AZN1997w,2019-05-15-11-26-49,9,24,0.6826129421360818,right,stripes-2,stripes-4,right,left,0.28343976578435104,0.23967049583006883
AZN1997w,2019-05-15-11-26-49,9,25,0.525237194981968,left,stripes-2,stripes-8,left,left,0.4802957426818466,0.2639550701014741
AZN1997w,2019-05-15-11-26-49,9,26,0.6296082621811936,left,stripes-4,heavy poles sphere,left,left,0.29770940613252606,0.24782755268370238
AZN1997w,2019-05-15-11-26-49,9,27,0.6623962227430594,left,stripes-4,stripes-2,left,right,0.3526110107977729,0.31981173678195773
AZN1997w,2019-05-15-11-26-49,9,28,0.5838936645525074,right,stripes-8,stripes-2,right,left,0.32538941090933804,0.2558036111358888
AZN1997w,2019-05-15-11-26-49,9,29,0.6881929512721195,left,heavy poles sphere,stripes-2,left,right,0.2915588813921204,0.2638036161115451
AZN1997w,2019-05-15-11-26-49,9,30,0.6064629310250723,left,stripes-4,stripes-4,left,right,0.36376884700348455,0.24782226578918198
AZN1997w,2019-05-15-11-26-49,9,31,0.6617701068247863,left,stripes-8,heavy poles sphere,left,right,0.28129266446467227,0.27195289812061674
AZN1997w,2019-05-15-11-26-49,9,32,0.5243117465835524,right,stripes-4,stripes-2,right,right,0.285637559096358,0.2877883923420086
AZN1997w,2019-05-15-11-26-49,9,33,0.6725216739124179,left,stripes-4,heavy poles sphere,left,left,0.29172775103506865,0.2639731077424585
AZN1997w,2019-05-15-11-26-49,9,34,0.6354903990802083,right,stripes-2,stripes-2,left,left,0.3394180310488082,0.27971654779412347
AZN1997w,2019-05-15-11-26-49,9,35,0.6645574237119398,left,heavy poles sphere,heavy poles sphere,left,left,0.281597749399225,0.255850882195773
AZN1997w,2019-05-15-11-26-49,9,36,0.6797339679463678,right,stripes-4,stripes-8,left,left,0.27964253126538097,0.25582849064085167
AZN1997w,2019-05-15-11-26-49,9,37,0.5576167343598393,left,stripes-8,stripes-2,left,left,0.04395462226966629,0.3758733483891774
AZN1997w,2019-05-15-11-26-49,9,38,0.6836735690742648,right,stripes-8,stripes-4,right,left,0.3028933620862517,0.23194883032101643
AZN1997w,2019-05-15-11-26-49,9,39,0.5199311451126617,right,stripes-8,heavy poles sphere,left,left,0.3325329389108447,0.23196220305453608
AZN1997w,2019-05-15-11-26-49,9,40,0.5063503957738144,left,heavy poles sphere,stripes-2,right,left,0.3935399742122172,0.22385397223115433
AZN1997w,2019-05-15-11-26-49,9,41,0.5481950896640464,right,stripes-2,heavy poles sphere,left,left,0.27510513145989535,0.24785896305911592
AZN1997w,2019-05-15-11-26-49,9,42,0.6222031499715807,left,stripes-2,stripes-4,right,left,0.3640272828661182,0.22382722676229605
AZN1997w,2019-05-15-11-26-49,9,43,0.5742778746481192,right,heavy poles sphere,stripes-8,right,right,0.3096294881843278,0.26395911302097375
AZN1997w,2019-05-15-11-26-49,9,44,0.6988115004178883,right,stripes-8,stripes-8,right,left,0.29842904582710617,0.26380579306805885
AZN1997w,2019-05-15-11-26-49,9,45,0.6887133248660453,left,stripes-4,stripes-4,right,right,0.335191314066833,0.2159929814915813
AZN1997w,2019-05-15-11-26-49,9,46,0.6351604256154371,left,stripes-2,stripes-8,right,right,0.462922384029298,0.28784717017424555
AZN1997w,2019-05-15-11-26-49,9,47,0.6707923580134223,right,heavy poles sphere,stripes-4,left,left,0.2702729095144605,0.22380887812778383
AZN1997w,2019-05-15-11-26-49,10,0,0.6611584486902284,right,heavy poles sphere,stripes-4,right,left,0.3115508079936262,0.31186149081804615
AZN1997w,2019-05-15-11-26-49,10,1,0.677676439487761,right,heavy poles sphere,heavy poles sphere,right,right,0.3245571914521861,0.23170563315579784
AZN1997w,2019-05-15-11-26-49,10,2,0.594566830584868,left,stripes-2,stripes-4,left,right,0.3173113464845301,0.20795161433761677
AZN1997w,2019-05-15-11-26-49,10,3,0.6646149967959668,left,stripes-4,stripes-8,right,right,0.48482816658633965,0.22382225086130347
AZN1997w,2019-05-15-11-26-49,10,4,0.6827862015177363,left,stripes-8,heavy poles sphere,left,right,0.1728911042710024,0.2638036161124546
AZN1997w,2019-05-15-11-26-49,10,5,0.5669584098434651,left,stripes-2,stripes-8,left,right,0.8278717635657813,0.3279529329511206
AZN1997w,2019-05-15-11-26-49,10,6,0.658755188667421,right,stripes-8,stripes-2,left,left,0.6015792888065334,0.27183036655515025
AZN1997w,2019-05-15-11-26-49,10,7,0.6720534161383447,right,stripes-4,heavy poles sphere,right,right,0.6516552023977056,0.22380017029990995
AZN1997w,2019-05-15-11-26-49,10,8,0.6693471286177177,left,stripes-4,stripes-2,right,right,0.46799811413347925,0.23995940908753255
AZN1997w,2019-05-15-11-26-49,10,9,0.6287979926673364,right,stripes-8,stripes-4,right,right,0.3416596744891649,0.2717230736889178
AZN1997w,2019-05-15-11-26-49,10,10,0.6209366478995575,left,stripes-4,stripes-4,left,right,0.3069714240218673,0.271838452395059
AZN1997w,2019-05-15-11-26-49,10,11,0.6129629293995442,right,heavy poles sphere,stripes-2,left,left,0.33121059319546475,0.24794977325382206
AZN1997w,2019-05-15-11-26-49,10,12,0.6675399587530504,right,stripes-2,heavy poles sphere,right,right,0.38538478332066006,0.30382385558914393
AZN1997w,2019-05-15-11-26-49,10,13,0.5805097095476034,right,stripes-2,stripes-2,right,right,0.47761466497559013,0.25584590629478043
AZN1997w,2019-05-15-11-26-49,10,14,0.6362725831699122,right,stripes-8,stripes-8,right,right,0.25436246578283317,0.29568017146903003
AZN1997w,2019-05-15-11-26-49,10,15,0.5761549368438311,left,heavy poles sphere,stripes-8,right,right,0.3532137168176632,1.2477417183899888
AZN1997w,2019-05-15-11-26-49,10,16,0.6828627635546645,right,stripes-2,stripes-8,right,right,0.444412031977663,0.23982941367103194
AZN1997w,2019-05-15-11-26-49,10,17,0.6908087310859929,right,stripes-4,stripes-8,right,right,0.29247973408837424,0.23999766132692457
AZN1997w,2019-05-15-11-26-49,10,18,0.6271819373120703,right,heavy poles sphere,heavy poles sphere,right,right,0.31151131177830393,0.23180452918950323
AZN1997w,2019-05-15-11-26-49,10,19,0.6830563184074745,right,stripes-4,heavy poles sphere,right,right,0.4864755008402426,0.20769815437597572
AZN1997w,2019-05-15-11-26-49,10,20,0.6895851658200738,right,stripes-8,stripes-4,right,right,0.3425158404697868,0.2797314754971012
AZN1997w,2019-05-15-11-26-49,10,21,0.6599053618765314,right,stripes-2,stripes-4,right,right,0.48184542487615545,0.2398757517503327
AZN1997w,2019-05-15-11-26-49,10,22,0.6322054336572077,left,stripes-8,stripes-2,right,right,0.23460409553990758,4.775618893248065
AZN1997w,2019-05-15-11-26-49,10,23,0.6391405052312273,left,stripes-8,heavy poles sphere,left,left,0.4370187759404871,0.2878984841545389
AZN1997w,2019-05-15-11-26-49,10,24,0.6257882836722419,right,stripes-2,heavy poles sphere,right,right,0.2871679596755712,2.4158637324608208
AZN1997w,2019-05-15-11-26-49,10,25,0.6188763441303241,left,stripes-2,stripes-2,right,left,0.4235822880318665,0.25579428132186877
AZN1997w,2019-05-15-11-26-49,10,26,0.5142727291038474,left,heavy poles sphere,stripes-8,right,left,0.2957734696146872,0.2638592840048659
AZN1997w,2019-05-15-11-26-49,10,27,0.5866797824913723,right,stripes-4,stripes-4,right,right,0.3773863333144618,0.24795723710667517
AZN1997w,2019-05-15-11-26-49,10,28,0.5615478123473814,left,heavy poles sphere,stripes-2,right,right,0.3389745538634088,0.23983438957202452
AZN1997w,2019-05-15-11-26-49,10,29,0.6094702119154959,right,stripes-8,stripes-8,right,right,0.28252948687895696,0.24785212119513744
AZN1997w,2019-05-15-11-26-49,10,30,0.6326271941753547,right,stripes-4,stripes-2,right,left,0.306735379714155,0.2398266147265531
AZN1997w,2019-05-15-11-26-49,10,31,0.5187683386320867,right,heavy poles sphere,stripes-4,right,right,0.4323594665584096,1.871792487509083
AZN1997w,2019-05-15-11-26-49,10,32,0.6879952274880285,right,stripes-8,stripes-8,right,right,0.40639086076225794,0.23184869031229027
AZN1997w,2019-05-15-11-26-49,10,33,0.6650312679225711,right,stripes-2,stripes-2,right,right,0.6571495301814139,0.20784463246400264
AZN1997w,2019-05-15-11-26-49,10,34,0.6846830520655239,right,stripes-2,stripes-4,right,right,0.2977607201128194,0.23194198845703795
AZN1997w,2019-05-15-11-26-49,10,35,0.6216651433575832,left,stripes-4,stripes-8,right,right,0.27467782595431345,0.22380514620181202
AZN1997w,2019-05-15-11-26-49,10,36,0.6082018661185907,left,stripes-2,stripes-8,left,right,0.2943777293594394,0.1918595502156677
AZN1997w,2019-05-15-11-26-49,10,37,0.690521980369784,right,heavy poles sphere,stripes-4,left,right,0.3357993069812437,0.23185491018830362
AZN1997w,2019-05-15-11-26-49,10,38,0.6653472717687019,left,stripes-4,stripes-4,left,right,0.029404154503936297,0.28778621538549487
AZN1997w,2019-05-15-11-26-49,10,39,0.5918180394682782,right,stripes-2,heavy poles sphere,right,right,0.2898014553265966,0.24796532294476492
AZN1997w,2019-05-15-11-26-49,10,40,0.6286711530419531,right,stripes-8,heavy poles sphere,right,right,0.06743745447784022,0.2798400123401734
AZN1997w,2019-05-15-11-26-49,10,41,0.6535755420893136,right,heavy poles sphere,stripes-2,left,left,0.2837722181757272,1.6158134758597953
AZN1997w,2019-05-15-11-26-49,10,42,0.5858169943187443,right,heavy poles sphere,stripes-8,right,right,0.303594031157445,0.2558471502707107
AZN1997w,2019-05-15-11-26-49,10,43,0.6124805507581169,right,stripes-8,stripes-4,right,right,0.3839178254811486,0.23970501614348905
AZN1997w,2019-05-15-11-26-49,10,44,0.5606399846011489,right,heavy poles sphere,heavy poles sphere,right,right,0.513371179207752,0.24800139822855272
AZN1997w,2019-05-15-11-26-49,10,45,0.5270745999248286,left,stripes-8,stripes-2,left,right,0.3648479955509174,0.2558312895853305
AZN1997w,2019-05-15-11-26-49,10,46,0.5823450172473028,left,stripes-4,stripes-2,left,right,0.29171531128304196,0.2399367065372644
AZN1997w,2019-05-15-11-26-49,10,47,0.6043570937539544,right,stripes-4,heavy poles sphere,right,right,0.3112855302661046,0.2639488502254608
