filename,Participant,Session,Block,Trial,OnsetDelay,Bias,Prime,Probe,Response1,Response2,RT1,RT2
Data/shape-specificity-stripes-AKM1995M-2019-06-12-14-07-17.csv,AKM1995M,2019-06-12-14-07-17,1,0,0.5051353901081601,right,stripes-4,heavy poles sphere,right,right,0.46061550910826554,0.31986147173211066
Data/shape-specificity-stripes-AKM1995M-2019-06-12-14-07-17.csv,AKM1995M,2019-06-12-14-07-17,1,1,0.6669317733474062,left,stripes-2,stripes-8,right,right,0.27396714120959587,0.35982611816416465
Data/shape-specificity-stripes-AKM1995M-2019-06-12-14-07-17.csv,AKM1995M,2019-06-12-14-07-17,1,2,0.6043307077756546,right,stripes-2,stripes-2,right,right,0.4715642927717454,0.3277183731261175
Data/shape-specificity-stripes-AKM1995M-2019-06-12-14-07-17.csv,AKM1995M,2019-06-12-14-07-17,1,3,0.5574894689311687,right,stripes-8,stripes-4,right,right,0.26363567662701826,0.30369113271672177
Data/shape-specificity-stripes-AKM1995M-2019-06-12-14-07-17.csv,AKM1995M,2019-06-12-14-07-17,1,4,0.6342542974592502,left,heavy poles sphere,heavy poles sphere,right,right,0.4410715290882763,0.20783251962257054
Data/shape-specificity-stripes-AKM1995M-2019-06-12-14-07-17.csv,AKM1995M,2019-06-12-14-07-17,1,5,0.5842646609082062,left,stripes-2,stripes-4,right,right,0.3273825017877243,0.26370938172613023
Data/shape-specificity-stripes-AKM1995M-2019-06-12-14-07-17.csv,AKM1995M,2019-06-12-14-07-17,1,6,0.6529585884579324,right,stripes-8,stripes-8,right,right,0.6287701169048887,0.23986998047303132
Data/shape-specificity-stripes-AKM1995M-2019-06-12-14-07-17.csv,AKM1995M,2019-06-12-14-07-17,1,7,0.5200072123056769,right,stripes-4,stripes-4,right,right,0.24414456524391426,0.23197327210527874
Data/shape-specificity-stripes-AKM1995M-2019-06-12-14-07-17.csv,AKM1995M,2019-06-12-14-07-17,1,8,0.5147633581791337,right,stripes-4,stripes-2,right,right,0.45184646823508956,0.2718216075363671
Data/shape-specificity-stripes-AKM1995M-2019-06-12-14-07-17.csv,AKM1995M,2019-06-12-14-07-17,1,9,0.5469979791496506,left,stripes-8,stripes-2,right,right,0.3439596183129652,0.3279758744861283
Data/shape-specificity-stripes-AKM1995M-2019-06-12-14-07-17.csv,AKM1995M,2019-06-12-14-07-17,1,10,0.5912679672812531,right,heavy poles sphere,stripes-2,right,right,0.25417996546138966,0.271835291183379
Data/shape-specificity-stripes-AKM1995M-2019-06-12-14-07-17.csv,AKM1995M,2019-06-12-14-07-17,1,11,0.6387890741479365,right,heavy poles sphere,stripes-4,right,right,0.3283966466356105,0.3198443671735731
Data/shape-specificity-stripes-AKM1995M-2019-06-12-14-07-17.csv,AKM1995M,2019-06-12-14-07-17,1,12,0.5549018980024129,left,stripes-2,heavy poles sphere,right,right,0.27266937167451033,0.28777549613369047
Data/shape-specificity-stripes-AKM1995M-2019-06-12-14-07-17.csv,AKM1995M,2019-06-12-14-07-17,1,13,0.596938062740046,right,stripes-8,heavy poles sphere,right,right,0.4030368988878763,0.30369206569275775
Data/shape-specificity-stripes-AKM1995M-2019-06-12-14-07-17.csv,AKM1995M,2019-06-12-14-07-17,1,14,0.6742280470071242,right,stripes-4,stripes-8,right,right,0.3389402077491468,0.2958373412425317
Data/shape-specificity-stripes-AKM1995M-2019-06-12-14-07-17.csv,AKM1995M,2019-06-12-14-07-17,1,15,0.680827407648347,right,heavy poles sphere,stripes-8,right,right,0.3424055913869779,0.2798355598802118
Data/shape-specificity-stripes-AKM1995M-2019-06-12-14-07-17.csv,AKM1995M,2019-06-12-14-07-17,1,16,0.6585626443619307,left,stripes-2,stripes-4,right,right,0.5545098968532329,0.31984530014915435
Data/shape-specificity-stripes-AKM1995M-2019-06-12-14-07-17.csv,AKM1995M,2019-06-12-14-07-17,1,17,0.5174359055372197,left,stripes-4,stripes-4,right,right,0.2339045323042228,0.27198518931754734
Data/shape-specificity-stripes-AKM1995M-2019-06-12-14-07-17.csv,AKM1995M,2019-06-12-14-07-17,1,18,0.587983774305595,left,stripes-8,stripes-8,right,right,0.3175436485021237,0.2798585732871288
Data/shape-specificity-stripes-AKM1995M-2019-06-12-14-07-17.csv,AKM1995M,2019-06-12-14-07-17,1,19,0.6965261550576936,left,stripes-8,heavy poles sphere,right,right,0.3223478526160761,0.28781779104247107
Data/shape-specificity-stripes-AKM1995M-2019-06-12-14-07-17.csv,AKM1995M,2019-06-12-14-07-17,1,20,0.6588812020626286,right,stripes-4,stripes-2,right,right,0.3185680560854962,0.28784982321667485
Data/shape-specificity-stripes-AKM1995M-2019-06-12-14-07-17.csv,AKM1995M,2019-06-12-14-07-17,1,21,0.5335720016040982,right,stripes-8,stripes-2,right,right,0.3920644798331523,0.303907583135242
Data/shape-specificity-stripes-AKM1995M-2019-06-12-14-07-17.csv,AKM1995M,2019-06-12-14-07-17,1,22,0.6933773756920288,right,heavy poles sphere,stripes-2,right,right,0.32013390070733294,0.3118313478048549
Data/shape-specificity-stripes-AKM1995M-2019-06-12-14-07-17.csv,AKM1995M,2019-06-12-14-07-17,1,23,0.5229003295413808,left,heavy poles sphere,stripes-4,right,right,0.3623610137965443,0.27982280920923586
Data/shape-specificity-stripes-AKM1995M-2019-06-12-14-07-17.csv,AKM1995M,2019-06-12-14-07-17,1,24,0.6524515804899709,right,heavy poles sphere,stripes-8,right,right,0.31924446364291725,0.2878268098102126
Data/shape-specificity-stripes-AKM1995M-2019-06-12-14-07-17.csv,AKM1995M,2019-06-12-14-07-17,1,25,0.6758663264627017,right,stripes-4,heavy poles sphere,right,right,0.3240119707033955,0.2558064535187441
Data/shape-specificity-stripes-AKM1995M-2019-06-12-14-07-17.csv,AKM1995M,2019-06-12-14-07-17,1,26,0.5603975409573176,right,stripes-8,stripes-4,right,right,0.3097402377288745,0.2878128151705823
Data/shape-specificity-stripes-AKM1995M-2019-06-12-14-07-17.csv,AKM1995M,2019-06-12-14-07-17,1,27,0.5794413520398993,left,stripes-2,stripes-8,right,right,0.2858221555043201,0.27200384883690276
Data/shape-specificity-stripes-AKM1995M-2019-06-12-14-07-17.csv,AKM1995M,2019-06-12-14-07-17,1,28,0.5776308087301812,left,stripes-2,heavy poles sphere,right,right,0.3288998316602374,0.27168601503262835
Data/shape-specificity-stripes-AKM1995M-2019-06-12-14-07-17.csv,AKM1995M,2019-06-12-14-07-17,1,29,0.5060906183499247,left,heavy poles sphere,heavy poles sphere,right,right,0.2384568329139256,0.2799565357609026
Data/shape-specificity-stripes-AKM1995M-2019-06-12-14-07-17.csv,AKM1995M,2019-06-12-14-07-17,1,30,0.5301904254874017,left,stripes-4,stripes-8,right,right,0.40409178368508947,0.31983099451781527
Data/shape-specificity-stripes-AKM1995M-2019-06-12-14-07-17.csv,AKM1995M,2019-06-12-14-07-17,1,31,0.6476816811247924,right,stripes-2,stripes-2,right,right,0.571460825739905,0.3038170844688466
Data/shape-specificity-stripes-AKM1995M-2019-06-12-14-07-17.csv,AKM1995M,2019-06-12-14-07-17,1,32,0.540386447643,left,heavy poles sphere,heavy poles sphere,right,right,0.49219798869035003,0.29584636000981845
Data/shape-specificity-stripes-AKM1995M-2019-06-12-14-07-17.csv,AKM1995M,2019-06-12-14-07-17,1,33,0.5145769599841296,right,stripes-2,stripes-8,right,right,0.19841661543068767,0.3117601306416873
Data/shape-specificity-stripes-AKM1995M-2019-06-12-14-07-17.csv,AKM1995M,2019-06-12-14-07-17,1,34,0.570105869038561,right,heavy poles sphere,stripes-8,right,right,0.27597366146710556,0.28786257388810554
Data/shape-specificity-stripes-AKM1995M-2019-06-12-14-07-17.csv,AKM1995M,2019-06-12-14-07-17,1,35,0.5188443568112272,left,stripes-2,heavy poles sphere,right,right,0.20824396201305717,0.3199028336657648
Data/shape-specificity-stripes-AKM1995M-2019-06-12-14-07-17.csv,AKM1995M,2019-06-12-14-07-17,1,36,0.6097106428420878,left,stripes-2,stripes-2,right,right,0.5138330787863197,0.2799537368332494
Data/shape-specificity-stripes-AKM1995M-2019-06-12-14-07-17.csv,AKM1995M,2019-06-12-14-07-17,1,37,0.6678727633818078,right,stripes-4,stripes-8,right,right,0.5258323933599058,0.3119411279740234
Data/shape-specificity-stripes-AKM1995M-2019-06-12-14-07-17.csv,AKM1995M,2019-06-12-14-07-17,1,38,0.6282889338297871,right,stripes-4,stripes-2,right,right,0.26649742483095906,0.2718439989585022
Data/shape-specificity-stripes-AKM1995M-2019-06-12-14-07-17.csv,AKM1995M,2019-06-12-14-07-17,1,39,0.6372572716905737,right,stripes-4,stripes-4,right,right,0.3788174654341674,0.2796956134893662
Data/shape-specificity-stripes-AKM1995M-2019-06-12-14-07-17.csv,AKM1995M,2019-06-12-14-07-17,1,40,0.665651408775862,right,heavy poles sphere,stripes-4,right,right,0.2543087161411677,0.24770573441264787
Data/shape-specificity-stripes-AKM1995M-2019-06-12-14-07-17.csv,AKM1995M,2019-06-12-14-07-17,1,41,0.5565789033484314,left,heavy poles sphere,stripes-2,right,right,0.39654276435157954,0.31985960578049344
Data/shape-specificity-stripes-AKM1995M-2019-06-12-14-07-17.csv,AKM1995M,2019-06-12-14-07-17,1,42,0.5847111648447706,left,stripes-8,heavy poles sphere,right,right,0.5046202523571992,0.26398274367693375
Data/shape-specificity-stripes-AKM1995M-2019-06-12-14-07-17.csv,AKM1995M,2019-06-12-14-07-17,1,43,0.6048700950979117,left,stripes-2,stripes-4,right,right,0.37597002286065617,0.26398118871702536
Data/shape-specificity-stripes-AKM1995M-2019-06-12-14-07-17.csv,AKM1995M,2019-06-12-14-07-17,1,44,0.6950033730692804,right,stripes-8,stripes-4,right,right,0.30608048410249467,0.25585807818788453
Data/shape-specificity-stripes-AKM1995M-2019-06-12-14-07-17.csv,AKM1995M,2019-06-12-14-07-17,1,45,0.6598491367481673,left,stripes-8,stripes-2,right,right,0.27228560757112064,0.30380899867714106
Data/shape-specificity-stripes-AKM1995M-2019-06-12-14-07-17.csv,AKM1995M,2019-06-12-14-07-17,1,46,0.5958638983419712,right,stripes-8,stripes-8,right,right,0.2964857595216017,0.3038472506909784
Data/shape-specificity-stripes-AKM1995M-2019-06-12-14-07-17.csv,AKM1995M,2019-06-12-14-07-17,1,47,0.5574969302661905,left,stripes-4,heavy poles sphere,right,right,0.3629049387700434,0.2476889408453644
Data/shape-specificity-stripes-AKM1995M-2019-06-12-14-07-17.csv,AKM1995M,2019-06-12-14-07-17,2,0,0.5830525509346534,right,stripes-2,stripes-8,right,right,0.38920832948497264,0.25581982617450194
Data/shape-specificity-stripes-AKM1995M-2019-06-12-14-07-17.csv,AKM1995M,2019-06-12-14-07-17,2,1,0.59224721341425135,right,heavy poles sphere,stripes-4,right,right,0.2281057758359566,0.2719341866331888
Data/shape-specificity-stripes-AKM1995M-2019-06-12-14-07-17.csv,AKM1995M,2019-06-12-14-07-17,2,2,0.5410057411229877,left,stripes-4,stripes-4,right,right,0.36986867119685485,0.27969405852945783
Data/shape-specificity-stripes-AKM1995M-2019-06-12-14-07-17.csv,AKM1995M,2019-06-12-14-07-17,2,3,0.5326362727361874,right,stripes-4,stripes-2,right,right,0.28929997882141834,0.2958687514324083
Data/shape-specificity-stripes-AKM1995M-2019-06-12-14-07-17.csv,AKM1995M,2019-06-12-14-07-17,2,4,0.6699070877592939,left,stripes-2,stripes-2,right,right,0.35742277213921625,0.24784039393989588
Data/shape-specificity-stripes-AKM1995M-2019-06-12-14-07-17.csv,AKM1995M,2019-06-12-14-07-17,2,5,0.521455479339366,right,heavy poles sphere,stripes-2,right,right,0.337060883211052,0.25582977791736994
Data/shape-specificity-stripes-AKM1995M-2019-06-12-14-07-17.csv,AKM1995M,2019-06-12-14-07-17,2,6,0.5523866622935554,right,stripes-4,heavy poles sphere,right,right,0.38800883341627923,0.23993280085323931
Data/shape-specificity-stripes-AKM1995M-2019-06-12-14-07-17.csv,AKM1995M,2019-06-12-14-07-17,2,7,0.6322058893776066,left,stripes-8,stripes-4,right,right,0.2728124279860822,0.25582480204593594
Data/shape-specificity-stripes-AKM1995M-2019-06-12-14-07-17.csv,AKM1995M,2019-06-12-14-07-17,2,8,0.6286968213950161,left,heavy poles sphere,stripes-8,right,right,0.31443155175384163,0.3038295241481137
Data/shape-specificity-stripes-AKM1995M-2019-06-12-14-07-17.csv,AKM1995M,2019-06-12-14-07-17,2,9,0.535187623226314,left,stripes-2,heavy poles sphere,right,right,0.5246677283930694,0.2558443945408726
Data/shape-specificity-stripes-AKM1995M-2019-06-12-14-07-17.csv,AKM1995M,2019-06-12-14-07-17,2,10,0.6758398460359567,left,stripes-8,heavy poles sphere,right,right,0.2426685973050553,0.2719015324751126
Data/shape-specificity-stripes-AKM1995M-2019-06-12-14-07-17.csv,AKM1995M,2019-06-12-14-07-17,2,11,0.6457824185238067,left,stripes-2,stripes-4,right,right,0.2597181106489188,0.2716944118160427
Data/shape-specificity-stripes-AKM1995M-2019-06-12-14-07-17.csv,AKM1995M,2019-06-12-14-07-17,2,12,0.6255486859831016,left,heavy poles sphere,heavy poles sphere,right,right,0.247269412663627,0.2718066799211556
Data/shape-specificity-stripes-AKM1995M-2019-06-12-14-07-17.csv,AKM1995M,2019-06-12-14-07-17,2,13,0.5852417621349588,left,stripes-8,stripes-2,right,right,0.2894837750818624,0.2878109492189651
Data/shape-specificity-stripes-AKM1995M-2019-06-12-14-07-17.csv,AKM1995M,2019-06-12-14-07-17,2,14,0.5481439503992269,left,stripes-8,stripes-8,right,right,0.2918759253952885,0.2636978750228991
Data/shape-specificity-stripes-AKM1995M-2019-06-12-14-07-17.csv,AKM1995M,2019-06-12-14-07-17,2,15,0.5225047550694996,right,stripes-4,stripes-8,right,right,0.2561591184248755,0.27961879847043747
Data/shape-specificity-stripes-AKM1995M-2019-06-12-14-07-17.csv,AKM1995M,2019-06-12-14-07-17,2,16,0.5504722726062615,right,stripes-2,stripes-4,right,right,0.24368336413726865,0.2958211696595754
Data/shape-specificity-stripes-AKM1995M-2019-06-12-14-07-17.csv,AKM1995M,2019-06-12-14-07-17,2,17,0.6817090208684214,right,stripes-2,stripes-2,right,right,0.2818821981036308,0.2558123623666688
Data/shape-specificity-stripes-AKM1995M-2019-06-12-14-07-17.csv,AKM1995M,2019-06-12-14-07-17,2,18,0.5403568809947003,left,stripes-8,stripes-4,right,right,0.08613918072887827,0.2878311636977742
Data/shape-specificity-stripes-AKM1995M-2019-06-12-14-07-17.csv,AKM1995M,2019-06-12-14-07-17,2,19,0.6273193013751058,right,stripes-4,stripes-4,right,right,0.5004713083462775,0.27983182797697737
Data/shape-specificity-stripes-AKM1995M-2019-06-12-14-07-17.csv,AKM1995M,2019-06-12-14-07-17,2,20,0.5483268394009057,right,stripes-4,heavy poles sphere,right,right,0.2159764666148476,0.27182969332761786
Data/shape-specificity-stripes-AKM1995M-2019-06-12-14-07-17.csv,AKM1995M,2019-06-12-14-07-17,2,21,0.5766678340783313,left,stripes-8,stripes-2,right,right,0.2690478700624226,0.22379884789916105
Data/shape-specificity-stripes-AKM1995M-2019-06-12-14-07-17.csv,AKM1995M,2019-06-12-14-07-17,2,22,0.5739277847245059,right,stripes-8,stripes-8,right,right,0.27388814924643157,0.31185529418735314
Data/shape-specificity-stripes-AKM1995M-2019-06-12-14-07-17.csv,AKM1995M,2019-06-12-14-07-17,2,23,0.6693228301843855,right,heavy poles sphere,stripes-8,right,right,0.3600811315877763,0.27994378508947193
Data/shape-specificity-stripes-AKM1995M-2019-06-12-14-07-17.csv,AKM1995M,2019-06-12-14-07-17,2,24,0.5389805542700844,left,stripes-2,heavy poles sphere,right,right,0.21778488498102888,0.31170539605273007
Data/shape-specificity-stripes-AKM1995M-2019-06-12-14-07-17.csv,AKM1995M,2019-06-12-14-07-17,2,25,0.5283023048830284,right,stripes-4,stripes-8,right,right,0.302681652748106,0.32784214793446154
Data/shape-specificity-stripes-AKM1995M-2019-06-12-14-07-17.csv,AKM1995M,2019-06-12-14-07-17,2,26,0.5819209091295916,right,heavy poles sphere,stripes-2,right,right,0.3988832899967747,0.2399576802113188
Data/shape-specificity-stripes-AKM1995M-2019-06-12-14-07-17.csv,AKM1995M,2019-06-12-14-07-17,2,27,0.6578984582654268,left,stripes-8,heavy poles sphere,right,right,0.3797408006239493,0.23191169569281556
Data/shape-specificity-stripes-AKM1995M-2019-06-12-14-07-17.csv,AKM1995M,2019-06-12-14-07-17,2,28,0.69410079235785,right,heavy poles sphere,stripes-4,right,right,0.3037315616743399,0.23980311719697056
Data/shape-specificity-stripes-AKM1995M-2019-06-12-14-07-17.csv,AKM1995M,2019-06-12-14-07-17,2,29,0.5042795803566005,left,stripes-2,stripes-8,right,right,0.2855005897963565,0.20786424080461074
Data/shape-specificity-stripes-AKM1995M-2019-06-12-14-07-17.csv,AKM1995M,2019-06-12-14-07-17,2,30,0.5886298366279685,left,stripes-4,stripes-2,right,right,0.2178445954414201,0.26381107610404797
Data/shape-specificity-stripes-AKM1995M-2019-06-12-14-07-17.csv,AKM1995M,2019-06-12-14-07-17,2,31,0.6408525934028733,left,heavy poles sphere,heavy poles sphere,right,right,0.44688583515517166,0.24769640465274279
Data/shape-specificity-stripes-AKM1995M-2019-06-12-14-07-17.csv,AKM1995M,2019-06-12-14-07-17,2,32,0.587832645788671,left,heavy poles sphere,stripes-4,right,right,0.40306302221415535,0.2396973799236548
Data/shape-specificity-stripes-AKM1995M-2019-06-12-14-07-17.csv,AKM1995M,2019-06-12-14-07-17,2,33,0.6500148617742304,right,stripes-4,stripes-2,right,right,0.44569380289385663,0.24782888723621
Data/shape-specificity-stripes-AKM1995M-2019-06-12-14-07-17.csv,AKM1995M,2019-06-12-14-07-17,2,34,0.5182046813417502,left,heavy poles sphere,heavy poles sphere,right,right,0.26261811086669695,0.2558493704123066
Data/shape-specificity-stripes-AKM1995M-2019-06-12-14-07-17.csv,AKM1995M,2019-06-12-14-07-17,2,35,0.5205586388684038,right,stripes-4,stripes-4,right,right,0.38030773900436543,0.2399387097007093
Data/shape-specificity-stripes-AKM1995M-2019-06-12-14-07-17.csv,AKM1995M,2019-06-12-14-07-17,2,36,0.6793159081234903,right,stripes-2,stripes-2,right,right,0.391753176860675,0.20784620326958247
Data/shape-specificity-stripes-AKM1995M-2019-06-12-14-07-17.csv,AKM1995M,2019-06-12-14-07-17,2,37,0.6793065493383761,right,stripes-8,heavy poles sphere,right,right,0.27725930231417806,0.2399113424062307
Data/shape-specificity-stripes-AKM1995M-2019-06-12-14-07-17.csv,AKM1995M,2019-06-12-14-07-17,2,38,0.5116602428787766,right,stripes-2,stripes-4,right,right,0.38761978244838247,0.26376598226670467
Data/shape-specificity-stripes-AKM1995M-2019-06-12-14-07-17.csv,AKM1995M,2019-06-12-14-07-17,2,39,0.6309744933144356,right,stripes-4,heavy poles sphere,right,right,0.3598662361296192,0.2716574037704049
Data/shape-specificity-stripes-AKM1995M-2019-06-12-14-07-17.csv,AKM1995M,2019-06-12-14-07-17,2,40,0.6064046107427469,left,stripes-4,stripes-8,right,right,0.2132126808846806,0.2959698238259989
Data/shape-specificity-stripes-AKM1995M-2019-06-12-14-07-17.csv,AKM1995M,2019-06-12-14-07-17,2,41,0.6435813653736967,left,stripes-2,stripes-8,right,right,0.37413330422441504,0.23990947645415872
Data/shape-specificity-stripes-AKM1995M-2019-06-12-14-07-17.csv,AKM1995M,2019-06-12-14-07-17,2,42,0.6419718549890454,left,stripes-2,heavy poles sphere,right,right,0.27629895907875834,0.2799478279853247
Data/shape-specificity-stripes-AKM1995M-2019-06-12-14-07-17.csv,AKM1995M,2019-06-12-14-07-17,2,43,0.6337437668198933,right,stripes-8,stripes-8,right,right,0.4031581857598212,0.20794758665533664
Data/shape-specificity-stripes-AKM1995M-2019-06-12-14-07-17.csv,AKM1995M,2019-06-12-14-07-17,2,44,0.5486087745982167,left,stripes-8,stripes-4,right,right,0.348083060981935,0.2158253245124797
Data/shape-specificity-stripes-AKM1995M-2019-06-12-14-07-17.csv,AKM1995M,2019-06-12-14-07-17,2,45,0.5521478955514407,left,heavy poles sphere,stripes-2,right,right,0.2556736599431133,0.255884823498036
Data/shape-specificity-stripes-AKM1995M-2019-06-12-14-07-17.csv,AKM1995M,2019-06-12-14-07-17,2,46,0.6559196038499487,left,stripes-8,stripes-2,right,right,0.22392697659506666,0.23995519227537443
Data/shape-specificity-stripes-AKM1995M-2019-06-12-14-07-17.csv,AKM1995M,2019-06-12-14-07-17,2,47,0.6002246365870765,right,heavy poles sphere,stripes-8,right,right,0.2455480720518608,0.28782401088210463
Data/shape-specificity-stripes-AKM1995M-2019-06-12-14-07-17.csv,AKM1995M,2019-06-12-14-07-17,3,0,0.6922794893180294,right,stripes-2,stripes-4,right,right,0.2679845884813403,0.2478183135094696
Data/shape-specificity-stripes-AKM1995M-2019-06-12-14-07-17.csv,AKM1995M,2019-06-12-14-07-17,3,1,0.5120463321469532,right,stripes-2,stripes-2,right,right,0.5383296060940665,0.19187365515381316
Data/shape-specificity-stripes-AKM1995M-2019-06-12-14-07-17.csv,AKM1995M,2019-06-12-14-07-17,3,2,0.5795751954129535,left,stripes-8,stripes-2,right,right,0.35710618230268665,0.23998629147354222
Data/shape-specificity-stripes-AKM1995M-2019-06-12-14-07-17.csv,AKM1995M,2019-06-12-14-07-17,3,3,0.6927586090270759,right,stripes-4,heavy poles sphere,right,right,0.2180538930442708,0.25587798167453
Data/shape-specificity-stripes-AKM1995M-2019-06-12-14-07-17.csv,AKM1995M,2019-06-12-14-07-17,3,4,0.6430689070855753,left,stripes-2,stripes-8,right,right,0.2048606802577524,0.23981275794858448
Data/shape-specificity-stripes-AKM1995M-2019-06-12-14-07-17.csv,AKM1995M,2019-06-12-14-07-17,3,5,0.5865655497444808,left,stripes-4,stripes-2,right,right,0.19536920501423083,0.23969147107573008
Data/shape-specificity-stripes-AKM1995M-2019-06-12-14-07-17.csv,AKM1995M,2019-06-12-14-07-17,3,6,0.6826421930901553,right,stripes-4,stripes-4,right,right,0.36614982909441096,0.3278337511510472
Data/shape-specificity-stripes-AKM1995M-2019-06-12-14-07-17.csv,AKM1995M,2019-06-12-14-07-17,3,7,0.6959490623129403,left,heavy poles sphere,heavy poles sphere,right,right,0.26426947828304037,0.26382507074276873
Data/shape-specificity-stripes-AKM1995M-2019-06-12-14-07-17.csv,AKM1995M,2019-06-12-14-07-17,3,8,0.6370244042639855,right,heavy poles sphere,stripes-2,right,right,0.3145360450589578,0.3518628575125149
Data/shape-specificity-stripes-AKM1995M-2019-06-12-14-07-17.csv,AKM1995M,2019-06-12-14-07-17,3,9,0.5739764652078426,right,stripes-8,stripes-4,right,right,0.440038102737617,0.26393485091193725
Data/shape-specificity-stripes-AKM1995M-2019-06-12-14-07-17.csv,AKM1995M,2019-06-12-14-07-17,3,10,0.6440349269262086,right,stripes-8,stripes-8,right,right,0.33757650791449123,0.28784702428902165
Data/shape-specificity-stripes-AKM1995M-2019-06-12-14-07-17.csv,AKM1995M,2019-06-12-14-07-17,3,11,0.6776306450655923,right,stripes-4,stripes-8,right,right,0.20424025125703338,0.3038282801803689
Data/shape-specificity-stripes-AKM1995M-2019-06-12-14-07-17.csv,AKM1995M,2019-06-12-14-07-17,3,12,0.5337572888118304,right,stripes-2,heavy poles sphere,right,right,0.23523744393196466,0.2958696844084443
Data/shape-specificity-stripes-AKM1995M-2019-06-12-14-07-17.csv,AKM1995M,2019-06-12-14-07-17,3,13,0.5661976768947359,left,stripes-8,heavy poles sphere,right,right,0.28019973148957433,0.2479657237081483
Data/shape-specificity-stripes-AKM1995M-2019-06-12-14-07-17.csv,AKM1995M,2019-06-12-14-07-17,3,14,0.6421669550145409,left,heavy poles sphere,stripes-8,right,right,0.23311367969745334,0.2798144124258215
Data/shape-specificity-stripes-AKM1995M-2019-06-12-14-07-17.csv,AKM1995M,2019-06-12-14-07-17,3,15,0.5994793908312777,left,heavy poles sphere,stripes-4,right,right,0.357467554984396,0.3198670695878718
Data/shape-specificity-stripes-AKM1995M-2019-06-12-14-07-17.csv,AKM1995M,2019-06-12-14-07-17,3,16,0.602610077680842,left,stripes-4,stripes-2,right,right,0.1697322701138546,0.29571325544247884
Data/shape-specificity-stripes-AKM1995M-2019-06-12-14-07-17.csv,AKM1995M,2019-06-12-14-07-17,3,17,0.6650352465192912,right,stripes-8,heavy poles sphere,right,right,0.3811772725816809,0.29586346456881074
Data/shape-specificity-stripes-AKM1995M-2019-06-12-14-07-17.csv,AKM1995M,2019-06-12-14-07-17,3,18,0.5813062049950638,left,heavy poles sphere,heavy poles sphere,right,right,0.3488524551416958,0.23973905284901775
Data/shape-specificity-stripes-AKM1995M-2019-06-12-14-07-17.csv,AKM1995M,2019-06-12-14-07-17,3,19,0.6359198964275518,right,stripes-4,stripes-4,right,right,0.3462740206318813,0.23983328341910237
Data/shape-specificity-stripes-AKM1995M-2019-06-12-14-07-17.csv,AKM1995M,2019-06-12-14-07-17,3,20,0.5651272703017663,left,stripes-8,stripes-2,right,right,0.39512059802518706,0.23182430694669165
Data/shape-specificity-stripes-AKM1995M-2019-06-12-14-07-17.csv,AKM1995M,2019-06-12-14-07-17,3,21,0.522278283562415,right,stripes-2,stripes-2,right,right,0.26072603565808095,0.23183581364992278
Data/shape-specificity-stripes-AKM1995M-2019-06-12-14-07-17.csv,AKM1995M,2019-06-12-14-07-17,3,22,0.6534711231591258,right,stripes-2,heavy poles sphere,right,right,0.27965487354003926,0.3038553364822292
Data/shape-specificity-stripes-AKM1995M-2019-06-12-14-07-17.csv,AKM1995M,2019-06-12-14-07-17,3,23,0.6734656003343523,left,stripes-4,stripes-8,right,right,0.26049279167227724,0.2798514204714593
Data/shape-specificity-stripes-AKM1995M-2019-06-12-14-07-17.csv,AKM1995M,2019-06-12-14-07-17,3,24,0.6645593022461647,left,stripes-8,stripes-8,right,right,0.2753572753622393,0.2638123200717928
Data/shape-specificity-stripes-AKM1995M-2019-06-12-14-07-17.csv,AKM1995M,2019-06-12-14-07-17,3,25,0.5674262325309876,right,stripes-4,heavy poles sphere,right,right,0.2317670844222448,0.2558251130380995
Data/shape-specificity-stripes-AKM1995M-2019-06-12-14-07-17.csv,AKM1995M,2019-06-12-14-07-17,3,26,0.6789741342863551,right,heavy poles sphere,stripes-8,right,right,0.33721358027332826,0.23183456968172322
Data/shape-specificity-stripes-AKM1995M-2019-06-12-14-07-17.csv,AKM1995M,2019-06-12-14-07-17,3,27,0.5786040355364969,left,stripes-2,stripes-4,right,right,0.21076361903851648,0.24792622772656614
Data/shape-specificity-stripes-AKM1995M-2019-06-12-14-07-17.csv,AKM1995M,2019-06-12-14-07-17,3,28,0.5603645631811767,left,stripes-8,stripes-4,right,right,0.2811824661475839,0.2399508383873581
Data/shape-specificity-stripes-AKM1995M-2019-06-12-14-07-17.csv,AKM1995M,2019-06-12-14-07-17,3,29,0.6876862750590862,left,heavy poles sphere,stripes-4,right,right,0.48070838997273313,0.2318305267863252
Data/shape-specificity-stripes-AKM1995M-2019-06-12-14-07-17.csv,AKM1995M,2019-06-12-14-07-17,3,30,0.6404652628459028,right,stripes-2,stripes-8,right,right,0.241555246014741,0.21574384461337104
Data/shape-specificity-stripes-AKM1995M-2019-06-12-14-07-17.csv,AKM1995M,2019-06-12-14-07-17,3,31,0.596298441042941,left,heavy poles sphere,stripes-2,right,right,0.35110870195967436,0.20799703438069628
Data/shape-specificity-stripes-AKM1995M-2019-06-12-14-07-17.csv,AKM1995M,2019-06-12-14-07-17,3,32,0.5253581699774283,left,heavy poles sphere,stripes-2,right,right,0.2760778437805129,0.2319779369850039
Data/shape-specificity-stripes-AKM1995M-2019-06-12-14-07-17.csv,AKM1995M,2019-06-12-14-07-17,3,33,0.5311968730542812,right,stripes-2,stripes-8,right,right,0.32109548791049747,0.20781199415205265
Data/shape-specificity-stripes-AKM1995M-2019-06-12-14-07-17.csv,AKM1995M,2019-06-12-14-07-17,3,34,0.5583676133652293,right,heavy poles sphere,stripes-8,right,right,0.34135692642894355,0.231833636706142
Data/shape-specificity-stripes-AKM1995M-2019-06-12-14-07-17.csv,AKM1995M,2019-06-12-14-07-17,3,35,0.5666233222996552,right,stripes-2,stripes-4,right,right,0.2790080102204229,0.21588099207701816
Data/shape-specificity-stripes-AKM1995M-2019-06-12-14-07-17.csv,AKM1995M,2019-06-12-14-07-17,3,36,0.6850611758527455,right,stripes-8,stripes-2,right,right,0.3591776998846399,0.23993715474034616
Data/shape-specificity-stripes-AKM1995M-2019-06-12-14-07-17.csv,AKM1995M,2019-06-12-14-07-17,3,37,0.5324705626083284,right,stripes-4,stripes-4,right,right,0.425419302712271,0.2238367889208348
Data/shape-specificity-stripes-AKM1995M-2019-06-12-14-07-17.csv,AKM1995M,2019-06-12-14-07-17,3,38,0.5700836710624573,right,stripes-2,heavy poles sphere,right,right,0.23308569041910232,0.29572258520147443
Data/shape-specificity-stripes-AKM1995M-2019-06-12-14-07-17.csv,AKM1995M,2019-06-12-14-07-17,3,39,0.6053669171998597,left,stripes-4,heavy poles sphere,right,right,0.2992495452517687,0.2319788699610399
Data/shape-specificity-stripes-AKM1995M-2019-06-12-14-07-17.csv,AKM1995M,2019-06-12-14-07-17,3,40,0.6128683065429099,left,stripes-4,stripes-2,right,right,0.28479525998454847,0.2638113870957568
Data/shape-specificity-stripes-AKM1995M-2019-06-12-14-07-17.csv,AKM1995M,2019-06-12-14-07-17,3,41,0.5055210141871539,right,stripes-8,stripes-8,right,right,0.4171155058425029,0.22379480500376303
Data/shape-specificity-stripes-AKM1995M-2019-06-12-14-07-17.csv,AKM1995M,2019-06-12-14-07-17,3,42,0.5623916743051812,left,stripes-8,heavy poles sphere,right,right,0.46529718238161877,0.20798241775764836
Data/shape-specificity-stripes-AKM1995M-2019-06-12-14-07-17.csv,AKM1995M,2019-06-12-14-07-17,3,43,0.6917658992611986,right,heavy poles sphere,heavy poles sphere,right,right,0.10004052225485793,0.27981472341753033
Data/shape-specificity-stripes-AKM1995M-2019-06-12-14-07-17.csv,AKM1995M,2019-06-12-14-07-17,3,44,0.6986177129819997,right,stripes-8,stripes-4,right,right,0.23246992629810848,0.23982550861956042
Data/shape-specificity-stripes-AKM1995M-2019-06-12-14-07-17.csv,AKM1995M,2019-06-12-14-07-17,3,45,0.6539627278519103,left,stripes-2,stripes-2,right,right,0.46667829776697545,0.19183944603628333
Data/shape-specificity-stripes-AKM1995M-2019-06-12-14-07-17.csv,AKM1995M,2019-06-12-14-07-17,3,46,0.6545861867565058,right,stripes-4,stripes-8,right,right,0.13350823522296196,0.25585776719572095
Data/shape-specificity-stripes-AKM1995M-2019-06-12-14-07-17.csv,AKM1995M,2019-06-12-14-07-17,3,47,0.6783251799744242,right,heavy poles sphere,stripes-4,right,right,0.4191245140364117,0.22380506773833986
Data/shape-specificity-stripes-AKM1995M-2019-06-12-14-07-17.csv,AKM1995M,2019-06-12-14-07-17,4,0,0.5340300934465798,right,stripes-2,stripes-4,right,right,0.2344851543311961,0.2558782926666936
Data/shape-specificity-stripes-AKM1995M-2019-06-12-14-07-17.csv,AKM1995M,2019-06-12-14-07-17,4,1,0.5346536490081395,left,stripes-8,heavy poles sphere,right,right,0.2503261528395342,0.27192205794608526
Data/shape-specificity-stripes-AKM1995M-2019-06-12-14-07-17.csv,AKM1995M,2019-06-12-14-07-17,4,2,0.6159246256459042,left,stripes-2,stripes-2,right,right,0.24386653841384032,0.3039610737559997
Data/shape-specificity-stripes-AKM1995M-2019-06-12-14-07-17.csv,AKM1995M,2019-06-12-14-07-17,4,3,0.6741325027817027,left,stripes-8,stripes-2,right,right,0.2900631531415456,0.23980778207669573
Data/shape-specificity-stripes-AKM1995M-2019-06-12-14-07-17.csv,AKM1995M,2019-06-12-14-07-17,4,4,0.6948956487767255,right,stripes-4,stripes-2,right,right,0.12823909809821998,0.2798262301212162
Data/shape-specificity-stripes-AKM1995M-2019-06-12-14-07-17.csv,AKM1995M,2019-06-12-14-07-17,4,5,0.5515017216841708,right,stripes-8,stripes-4,right,right,0.2093302570006017,0.2958202366835394
Data/shape-specificity-stripes-AKM1995M-2019-06-12-14-07-17.csv,AKM1995M,2019-06-12-14-07-17,4,6,0.5901986096230707,left,heavy poles sphere,stripes-4,right,right,0.29429264407554,0.2798203212732915
Data/shape-specificity-stripes-AKM1995M-2019-06-12-14-07-17.csv,AKM1995M,2019-06-12-14-07-17,4,7,0.5770575653617078,left,heavy poles sphere,stripes-2,right,right,0.4805973658358198,0.2238212393217509
Data/shape-specificity-stripes-AKM1995M-2019-06-12-14-07-17.csv,AKM1995M,2019-06-12-14-07-17,4,8,0.6154252695394264,left,stripes-2,heavy poles sphere,right,right,0.1640333420718889,0.23187344367988771
Data/shape-specificity-stripes-AKM1995M-2019-06-12-14-07-17.csv,AKM1995M,2019-06-12-14-07-17,4,9,0.5806687167164413,right,heavy poles sphere,stripes-8,right,right,0.3897889515119459,0.303818639428755
Data/shape-specificity-stripes-AKM1995M-2019-06-12-14-07-17.csv,AKM1995M,2019-06-12-14-07-17,4,10,0.5043818897390275,right,stripes-8,stripes-8,right,right,0.2767601601858587,0.2878072173152759
Data/shape-specificity-stripes-AKM1995M-2019-06-12-14-07-17.csv,AKM1995M,2019-06-12-14-07-17,4,11,0.5781268982840259,right,heavy poles sphere,heavy poles sphere,right,right,0.2730416290755784,0.23170861793005315
Data/shape-specificity-stripes-AKM1995M-2019-06-12-14-07-17.csv,AKM1995M,2019-06-12-14-07-17,4,12,0.5914240672355687,left,stripes-4,stripes-8,right,right,0.23659834483851228,0.2797509700617411
Data/shape-specificity-stripes-AKM1995M-2019-06-12-14-07-17.csv,AKM1995M,2019-06-12-14-07-17,4,13,0.5270471348735304,right,stripes-4,stripes-4,right,right,0.21832601102687477,0.3757355349075624
Data/shape-specificity-stripes-AKM1995M-2019-06-12-14-07-17.csv,AKM1995M,2019-06-12-14-07-17,4,14,0.5442664533264598,left,stripes-2,stripes-8,right,right,0.24392282796225118,0.31167927272690577
Data/shape-specificity-stripes-AKM1995M-2019-06-12-14-07-17.csv,AKM1995M,2019-06-12-14-07-17,4,15,0.5772403089477173,right,stripes-4,heavy poles sphere,right,right,0.2222183866542764,0.9196623746665864
Data/shape-specificity-stripes-AKM1995M-2019-06-12-14-07-17.csv,AKM1995M,2019-06-12-14-07-17,4,16,0.6646539814223087,right,stripes-2,heavy poles sphere,right,right,0.2290857115667677,0.27987567784566636
Data/shape-specificity-stripes-AKM1995M-2019-06-12-14-07-17.csv,AKM1995M,2019-06-12-14-07-17,4,17,0.6179944654422816,left,stripes-8,stripes-8,right,right,0.28738178028606853,0.2799440960816355
Data/shape-specificity-stripes-AKM1995M-2019-06-12-14-07-17.csv,AKM1995M,2019-06-12-14-07-17,4,18,0.6951184060521393,left,stripes-4,stripes-8,right,right,0.24420800760799466,0.26397341391793816
Data/shape-specificity-stripes-AKM1995M-2019-06-12-14-07-17.csv,AKM1995M,2019-06-12-14-07-17,4,19,0.5656878082294241,right,stripes-2,stripes-8,right,right,0.34458595616206367,0.2797214258234817
Data/shape-specificity-stripes-AKM1995M-2019-06-12-14-07-17.csv,AKM1995M,2019-06-12-14-07-17,4,20,0.6102077240095398,left,stripes-8,stripes-4,right,right,0.23068576530613427,0.2558381747007843
Data/shape-specificity-stripes-AKM1995M-2019-06-12-14-07-17.csv,AKM1995M,2019-06-12-14-07-17,4,21,0.5519883895396718,left,heavy poles sphere,heavy poles sphere,right,right,0.2470383456225136,0.28783054171390177
Data/shape-specificity-stripes-AKM1995M-2019-06-12-14-07-17.csv,AKM1995M,2019-06-12-14-07-17,4,22,0.5608500889833938,left,heavy poles sphere,stripes-4,right,right,0.24402079043557023,0.2718682563336188
Data/shape-specificity-stripes-AKM1995M-2019-06-12-14-07-17.csv,AKM1995M,2019-06-12-14-07-17,4,23,0.5942711019914915,left,heavy poles sphere,stripes-2,right,right,0.3043631863865812,0.24795857089247875
Data/shape-specificity-stripes-AKM1995M-2019-06-12-14-07-17.csv,AKM1995M,2019-06-12-14-07-17,4,24,0.5792751109582865,right,stripes-8,stripes-2,right,right,0.3625939467901844,0.263972791933611
Data/shape-specificity-stripes-AKM1995M-2019-06-12-14-07-17.csv,AKM1995M,2019-06-12-14-07-17,4,25,0.5974875053337472,right,stripes-2,stripes-4,right,right,0.2247641670064695,0.2558546572759042
Data/shape-specificity-stripes-AKM1995M-2019-06-12-14-07-17.csv,AKM1995M,2019-06-12-14-07-17,4,26,0.6311148814585834,left,stripes-8,heavy poles sphere,right,right,0.2611374780481128,0.29583112140289813
Data/shape-specificity-stripes-AKM1995M-2019-06-12-14-07-17.csv,AKM1995M,2019-06-12-14-07-17,4,27,0.5210072429109077,right,stripes-4,heavy poles sphere,right,right,0.3147758198761039,0.26383097959069346
Data/shape-specificity-stripes-AKM1995M-2019-06-12-14-07-17.csv,AKM1995M,2019-06-12-14-07-17,4,28,0.6987659503756329,left,stripes-2,stripes-2,right,right,0.20624303961085388,0.2639637731658695
Data/shape-specificity-stripes-AKM1995M-2019-06-12-14-07-17.csv,AKM1995M,2019-06-12-14-07-17,4,29,0.6179274920481903,right,heavy poles sphere,stripes-8,right,right,0.45128419473485337,0.27174385954140234
Data/shape-specificity-stripes-AKM1995M-2019-06-12-14-07-17.csv,AKM1995M,2019-06-12-14-07-17,4,30,0.6283185024032024,right,stripes-4,stripes-4,right,right,0.30062288583758345,0.27981845532167426
Data/shape-specificity-stripes-AKM1995M-2019-06-12-14-07-17.csv,AKM1995M,2019-06-12-14-07-17,4,31,0.5974509840286358,right,stripes-4,stripes-2,right,right,0.3088405379289725,0.2799804821434009
Data/shape-specificity-stripes-AKM1995M-2019-06-12-14-07-17.csv,AKM1995M,2019-06-12-14-07-17,4,32,0.6067273276132612,left,stripes-8,heavy poles sphere,right,right,0.373879845760257,0.27168259412110274
Data/shape-specificity-stripes-AKM1995M-2019-06-12-14-07-17.csv,AKM1995M,2019-06-12-14-07-17,4,33,0.6537903407816603,right,stripes-4,stripes-4,right,right,0.18454077524711465,0.36797379705967614
Data/shape-specificity-stripes-AKM1995M-2019-06-12-14-07-17.csv,AKM1995M,2019-06-12-14-07-17,4,34,0.575627638201107,right,heavy poles sphere,stripes-2,right,right,0.30016821556228024,0.27981161349771355
Data/shape-specificity-stripes-AKM1995M-2019-06-12-14-07-17.csv,AKM1995M,2019-06-12-14-07-17,4,35,0.5414072537224455,right,stripes-4,heavy poles sphere,right,right,0.24774834031359205,0.27183062630365384
Data/shape-specificity-stripes-AKM1995M-2019-06-12-14-07-17.csv,AKM1995M,2019-06-12-14-07-17,4,36,0.6826134030886761,right,heavy poles sphere,stripes-4,right,right,0.24813459235338087,0.26368730129570395
Data/shape-specificity-stripes-AKM1995M-2019-06-12-14-07-17.csv,AKM1995M,2019-06-12-14-07-17,4,37,0.6841876512282852,right,stripes-2,stripes-8,right,right,0.1755611928037979,0.2878109492189651
Data/shape-specificity-stripes-AKM1995M-2019-06-12-14-07-17.csv,AKM1995M,2019-06-12-14-07-17,4,38,0.6658435449527742,left,stripes-4,stripes-2,right,right,0.2818352383146703,0.3039564088762745
Data/shape-specificity-stripes-AKM1995M-2019-06-12-14-07-17.csv,AKM1995M,2019-06-12-14-07-17,4,39,0.6804099965563645,left,stripes-8,stripes-4,right,right,0.3347222235179288,0.31174831294629257
Data/shape-specificity-stripes-AKM1995M-2019-06-12-14-07-17.csv,AKM1995M,2019-06-12-14-07-17,4,40,0.6605296924196614,right,stripes-8,stripes-8,right,right,0.36140533544084974,0.2799842140466353
Data/shape-specificity-stripes-AKM1995M-2019-06-12-14-07-17.csv,AKM1995M,2019-06-12-14-07-17,4,41,0.6399215058442388,left,stripes-2,heavy poles sphere,right,right,0.19090056124696275,0.2799412971539823
Data/shape-specificity-stripes-AKM1995M-2019-06-12-14-07-17.csv,AKM1995M,2019-06-12-14-07-17,4,42,0.6232726013099285,left,heavy poles sphere,heavy poles sphere,right,right,0.43722144837056476,0.2477965440702974
Data/shape-specificity-stripes-AKM1995M-2019-06-12-14-07-17.csv,AKM1995M,2019-06-12-14-07-17,4,43,0.5516508002108136,right,stripes-2,stripes-2,right,right,0.25082560596001713,0.2558602551316653
Data/shape-specificity-stripes-AKM1995M-2019-06-12-14-07-17.csv,AKM1995M,2019-06-12-14-07-17,4,44,0.5154439594864353,right,stripes-4,stripes-8,right,right,0.22506893914714965,0.25582480204593594
Data/shape-specificity-stripes-AKM1995M-2019-06-12-14-07-17.csv,AKM1995M,2019-06-12-14-07-17,4,45,0.5112966614114162,left,stripes-8,stripes-2,right,right,0.280093683224095,0.24781458160532566
Data/shape-specificity-stripes-AKM1995M-2019-06-12-14-07-17.csv,AKM1995M,2019-06-12-14-07-17,4,46,0.5716430649038332,left,stripes-2,stripes-4,right,right,0.43583846703359086,0.24770915532371873
Data/shape-specificity-stripes-AKM1995M-2019-06-12-14-07-17.csv,AKM1995M,2019-06-12-14-07-17,4,47,0.676288250392489,left,heavy poles sphere,stripes-8,right,right,0.3171390479355978,0.24781986846937798
Data/shape-specificity-stripes-AKM1995M-2019-06-12-14-07-17.csv,AKM1995M,2019-06-12-14-07-17,5,0,0.6590891396948396,left,heavy poles sphere,stripes-2,right,right,0.17458032409740554,1.0639806911299274
Data/shape-specificity-stripes-AKM1995M-2019-06-12-14-07-17.csv,AKM1995M,2019-06-12-14-07-17,5,1,0.5388900345508908,right,stripes-4,stripes-4,right,right,0.4696149950382278,0.20794820863920904
Data/shape-specificity-stripes-AKM1995M-2019-06-12-14-07-17.csv,AKM1995M,2019-06-12-14-07-17,5,2,0.5271524763637152,left,stripes-8,heavy poles sphere,right,right,0.2778498760853836,0.2238087996424838
Data/shape-specificity-stripes-AKM1995M-2019-06-12-14-07-17.csv,AKM1995M,2019-06-12-14-07-17,5,3,0.6638899272915406,right,stripes-8,stripes-4,right,right,0.30270124524304265,0.23984447913016993
Data/shape-specificity-stripes-AKM1995M-2019-06-12-14-07-17.csv,AKM1995M,2019-06-12-14-07-17,5,4,0.5703576572905258,right,stripes-4,stripes-8,right,right,0.20971650904039052,0.23178885386096226
Data/shape-specificity-stripes-AKM1995M-2019-06-12-14-07-17.csv,AKM1995M,2019-06-12-14-07-17,5,5,0.5776169724095411,right,stripes-4,heavy poles sphere,right,right,0.2813559996729964,0.20788134536360303
Data/shape-specificity-stripes-AKM1995M-2019-06-12-14-07-17.csv,AKM1995M,2019-06-12-14-07-17,5,6,0.5798715313452102,left,stripes-4,stripes-2,right,right,0.2936778129301274,0.22381408650608137
Data/shape-specificity-stripes-AKM1995M-2019-06-12-14-07-17.csv,AKM1995M,2019-06-12-14-07-17,5,7,0.5184802537176375,right,stripes-8,stripes-8,right,right,0.3393687546977162,0.19985308738841923
Data/shape-specificity-stripes-AKM1995M-2019-06-12-14-07-17.csv,AKM1995M,2019-06-12-14-07-17,5,8,0.5088779843212778,right,stripes-2,stripes-4,right,right,0.28050792454223483,0.223834611977054
Data/shape-specificity-stripes-AKM1995M-2019-06-12-14-07-17.csv,AKM1995M,2019-06-12-14-07-17,5,9,0.5721467349569337,right,stripes-2,heavy poles sphere,right,right,0.31797717132258185,0.20786672874055512
Data/shape-specificity-stripes-AKM1995M-2019-06-12-14-07-17.csv,AKM1995M,2019-06-12-14-07-17,5,10,0.5534248954232868,right,heavy poles sphere,heavy poles sphere,right,right,0.29248484769323113,0.21570372664791648
Data/shape-specificity-stripes-AKM1995M-2019-06-12-14-07-17.csv,AKM1995M,2019-06-12-14-07-17,5,11,0.6541450498146072,left,heavy poles sphere,stripes-8,right,right,0.3106526881992977,0.22383585594479882
Data/shape-specificity-stripes-AKM1995M-2019-06-12-14-07-17.csv,AKM1995M,2019-06-12-14-07-17,5,12,0.5172681758728161,left,stripes-2,stripes-2,right,right,0.2922985634968427,0.19998183806819725
Data/shape-specificity-stripes-AKM1995M-2019-06-12-14-07-17.csv,AKM1995M,2019-06-12-14-07-17,5,13,0.6975581465302187,right,heavy poles sphere,stripes-4,right,right,0.3571658927635326,0.24784319286754908
Data/shape-specificity-stripes-AKM1995M-2019-06-12-14-07-17.csv,AKM1995M,2019-06-12-14-07-17,5,14,0.5757180649017324,right,stripes-8,stripes-2,right,right,0.28542719568895336,0.22379729293925266
Data/shape-specificity-stripes-AKM1995M-2019-06-12-14-07-17.csv,AKM1995M,2019-06-12-14-07-17,5,15,0.5955029207987408,right,stripes-2,stripes-8,right,right,0.3276683034173402,0.21582656848022452
Data/shape-specificity-stripes-AKM1995M-2019-06-12-14-07-17.csv,AKM1995M,2019-06-12-14-07-17,5,16,0.6210478807143034,left,heavy poles sphere,heavy poles sphere,right,right,0.25864021244478863,0.2079416778083214
Data/shape-specificity-stripes-AKM1995M-2019-06-12-14-07-17.csv,AKM1995M,2019-06-12-14-07-17,5,17,0.6818049363406575,right,stripes-2,stripes-2,right,right,0.2522005015052855,0.21586637545397025
Data/shape-specificity-stripes-AKM1995M-2019-06-12-14-07-17.csv,AKM1995M,2019-06-12-14-07-17,5,18,0.516793107769836,left,heavy poles sphere,stripes-2,right,right,0.4372671641913257,0.23197607103293194
Data/shape-specificity-stripes-AKM1995M-2019-06-12-14-07-17.csv,AKM1995M,2019-06-12-14-07-17,5,19,0.5197569969551619,left,stripes-4,stripes-2,right,right,0.1329764389365664,0.2476808550536589
Data/shape-specificity-stripes-AKM1995M-2019-06-12-14-07-17.csv,AKM1995M,2019-06-12-14-07-17,5,20,0.6129836090748216,right,stripes-4,heavy poles sphere,right,right,0.33389498485030344,0.25585030338788783
Data/shape-specificity-stripes-AKM1995M-2019-06-12-14-07-17.csv,AKM1995M,2019-06-12-14-07-17,5,21,0.5869798864921757,left,stripes-4,stripes-8,right,right,0.5902307467199535,0.20758932389435358
Data/shape-specificity-stripes-AKM1995M-2019-06-12-14-07-17.csv,AKM1995M,2019-06-12-14-07-17,5,22,0.5292044377334134,left,stripes-4,stripes-4,right,right,0.2955275932299628,0.21600258994112664
Data/shape-specificity-stripes-AKM1995M-2019-06-12-14-07-17.csv,AKM1995M,2019-06-12-14-07-17,5,23,0.626057580686655,right,stripes-8,heavy poles sphere,right,right,0.2744392270356002,0.21583994113552762
Data/shape-specificity-stripes-AKM1995M-2019-06-12-14-07-17.csv,AKM1995M,2019-06-12-14-07-17,5,24,0.6575319795014906,right,heavy poles sphere,stripes-8,right,right,0.7574946734848709,0.22380009186690586
Data/shape-specificity-stripes-AKM1995M-2019-06-12-14-07-17.csv,AKM1995M,2019-06-12-14-07-17,5,25,0.6569515010528606,right,stripes-2,heavy poles sphere,right,right,0.14728300301339914,0.24799588992982535
Data/shape-specificity-stripes-AKM1995M-2019-06-12-14-07-17.csv,AKM1995M,2019-06-12-14-07-17,5,26,0.6996201548352105,left,stripes-2,stripes-4,right,right,0.23031599584146534,0.19970070131785178
Data/shape-specificity-stripes-AKM1995M-2019-06-12-14-07-17.csv,AKM1995M,2019-06-12-14-07-17,5,27,0.6513563668546207,right,heavy poles sphere,stripes-4,right,right,0.5638104230206409,1.5677861444983137
Data/shape-specificity-stripes-AKM1995M-2019-06-12-14-07-17.csv,AKM1995M,2019-06-12-14-07-17,5,28,0.6550166744283632,left,stripes-8,stripes-2,right,right,0.2661858108663182,0.22383772189641604
Data/shape-specificity-stripes-AKM1995M-2019-06-12-14-07-17.csv,AKM1995M,2019-06-12-14-07-17,5,29,0.526196520372567,left,stripes-8,stripes-4,right,right,0.2477393215463053,0.20795878236685894
Data/shape-specificity-stripes-AKM1995M-2019-06-12-14-07-17.csv,AKM1995M,2019-06-12-14-07-17,5,30,0.5000265097851113,right,stripes-8,stripes-8,right,right,0.31292728354401333,0.2316535723493871
Data/shape-specificity-stripes-AKM1995M-2019-06-12-14-07-17.csv,AKM1995M,2019-06-12-14-07-17,5,31,0.5602467485501198,left,stripes-2,stripes-8,right,right,0.2517492521424174,0.1997905780003748
Data/shape-specificity-stripes-AKM1995M-2019-06-12-14-07-17.csv,AKM1995M,2019-06-12-14-07-17,5,32,0.6805485835565053,left,stripes-8,stripes-8,right,right,0.5180750094000359,0.21593043980192306
Data/shape-specificity-stripes-AKM1995M-2019-06-12-14-07-17.csv,AKM1995M,2019-06-12-14-07-17,5,33,0.5014640745115727,left,stripes-2,stripes-2,right,left,1.5153979904316657,0.40784576788109916
Data/shape-specificity-stripes-AKM1995M-2019-06-12-14-07-17.csv,AKM1995M,2019-06-12-14-07-17,5,34,0.5357686185856019,right,stripes-8,stripes-2,right,right,0.31128182497559465,0.2399710528666219
Data/shape-specificity-stripes-AKM1995M-2019-06-12-14-07-17.csv,AKM1995M,2019-06-12-14-07-17,5,35,0.6423191169674145,right,stripes-8,stripes-4,right,right,0.18288723088699044,0.23977823783843633
Data/shape-specificity-stripes-AKM1995M-2019-06-12-14-07-17.csv,AKM1995M,2019-06-12-14-07-17,5,36,0.5248630255022178,right,stripes-4,stripes-2,right,right,0.2645751833997565,0.2478761580173341
Data/shape-specificity-stripes-AKM1995M-2019-06-12-14-07-17.csv,AKM1995M,2019-06-12-14-07-17,5,37,0.6501987658768963,right,heavy poles sphere,stripes-4,right,right,0.24291148204201818,0.24784257088367667
Data/shape-specificity-stripes-AKM1995M-2019-06-12-14-07-17.csv,AKM1995M,2019-06-12-14-07-17,5,38,0.6687645077760719,left,stripes-4,heavy poles sphere,right,right,0.10916782588947171,0.2479691446196739
Data/shape-specificity-stripes-AKM1995M-2019-06-12-14-07-17.csv,AKM1995M,2019-06-12-14-07-17,5,39,0.5303357379090364,left,stripes-8,heavy poles sphere,right,right,0.15442990971587278,0.2636848133597596
Data/shape-specificity-stripes-AKM1995M-2019-06-12-14-07-17.csv,AKM1995M,2019-06-12-14-07-17,5,40,0.544617154690185,left,stripes-2,stripes-4,right,right,0.2674689637779011,0.23970795365084996
Data/shape-specificity-stripes-AKM1995M-2019-06-12-14-07-17.csv,AKM1995M,2019-06-12-14-07-17,5,41,0.6010748104284268,left,heavy poles sphere,heavy poles sphere,right,right,0.21704410208349145,0.23998909040119543
Data/shape-specificity-stripes-AKM1995M-2019-06-12-14-07-17.csv,AKM1995M,2019-06-12-14-07-17,5,42,0.5226371131809648,right,stripes-2,stripes-8,right,right,0.29753815638378,0.21575752826038297
Data/shape-specificity-stripes-AKM1995M-2019-06-12-14-07-17.csv,AKM1995M,2019-06-12-14-07-17,5,43,0.6821913058763316,right,stripes-4,stripes-4,right,right,0.22496662278581425,0.199828208029885
Data/shape-specificity-stripes-AKM1995M-2019-06-12-14-07-17.csv,AKM1995M,2019-06-12-14-07-17,5,44,0.5542403165850197,right,stripes-2,heavy poles sphere,right,right,0.27480464261270754,0.1918490867874425
Data/shape-specificity-stripes-AKM1995M-2019-06-12-14-07-17.csv,AKM1995M,2019-06-12-14-07-17,5,45,0.6810370052839491,right,stripes-4,stripes-8,right,right,0.20358188123418586,0.21584647196687
Data/shape-specificity-stripes-AKM1995M-2019-06-12-14-07-17.csv,AKM1995M,2019-06-12-14-07-17,5,46,0.5408365350448753,left,heavy poles sphere,stripes-2,right,right,0.2620393547913409,0.2158439840313804
Data/shape-specificity-stripes-AKM1995M-2019-06-12-14-07-17.csv,AKM1995M,2019-06-12-14-07-17,5,47,0.6137943731457598,left,heavy poles sphere,stripes-8,right,right,0.2270216577926476,0.19981732331052626
Data/shape-specificity-stripes-AKM1995M-2019-06-12-14-07-17.csv,AKM1995M,2019-06-12-14-07-17,6,0,0.6528900556251293,left,heavy poles sphere,stripes-8,right,right,0.254551289885967,0.19183291520494095
Data/shape-specificity-stripes-AKM1995M-2019-06-12-14-07-17.csv,AKM1995M,2019-06-12-14-07-17,6,1,0.5787562151630254,left,stripes-2,stripes-2,right,left,0.34823389209259403,0.3438336665612951
Data/shape-specificity-stripes-AKM1995M-2019-06-12-14-07-17.csv,AKM1995M,2019-06-12-14-07-17,6,2,0.6105465821067634,left,stripes-8,heavy poles sphere,right,right,0.28036735616660735,0.21581661673690178
Data/shape-specificity-stripes-AKM1995M-2019-06-12-14-07-17.csv,AKM1995M,2019-06-12-14-07-17,6,3,0.6133899809418845,right,stripes-8,stripes-4,right,right,0.2673318163147087,0.2318342586900144
Data/shape-specificity-stripes-AKM1995M-2019-06-12-14-07-17.csv,AKM1995M,2019-06-12-14-07-17,6,4,0.6422873680278357,left,stripes-8,stripes-2,right,right,0.20491199393472925,0.2238377218968708
Data/shape-specificity-stripes-AKM1995M-2019-06-12-14-07-17.csv,AKM1995M,2019-06-12-14-07-17,6,5,0.5470506434221554,right,stripes-4,stripes-4,right,right,0.25326129515087814,0.2318827734388833
Data/shape-specificity-stripes-AKM1995M-2019-06-12-14-07-17.csv,AKM1995M,2019-06-12-14-07-17,6,6,0.6510427057391612,right,stripes-2,stripes-4,right,right,0.15888891273152694,0.21579982317007307
Data/shape-specificity-stripes-AKM1995M-2019-06-12-14-07-17.csv,AKM1995M,2019-06-12-14-07-17,6,7,0.5500936436527091,left,stripes-2,heavy poles sphere,right,right,0.31460010940691063,0.1999889908838668
Data/shape-specificity-stripes-AKM1995M-2019-06-12-14-07-17.csv,AKM1995M,2019-06-12-14-07-17,6,8,0.6964076450680706,right,stripes-4,stripes-8,right,right,0.24152787872026238,0.22382683717751206
Data/shape-specificity-stripes-AKM1995M-2019-06-12-14-07-17.csv,AKM1995M,2019-06-12-14-07-17,6,9,0.6289943356446489,right,stripes-8,stripes-8,right,right,0.2451431604931713,0.19982727505430375
Data/shape-specificity-stripes-AKM1995M-2019-06-12-14-07-17.csv,AKM1995M,2019-06-12-14-07-17,6,10,0.6141635982268815,right,stripes-4,stripes-2,right,right,0.26612236850269255,0.19991870669628042
Data/shape-specificity-stripes-AKM1995M-2019-06-12-14-07-17.csv,AKM1995M,2019-06-12-14-07-17,6,11,0.5183006879664178,right,stripes-2,stripes-8,right,right,0.24184166962913878,0.19981514636674547
Data/shape-specificity-stripes-AKM1995M-2019-06-12-14-07-17.csv,AKM1995M,2019-06-12-14-07-17,6,12,0.5010491474337353,right,heavy poles sphere,stripes-2,right,right,0.24496589506452437,0.20793545796868784
Data/shape-specificity-stripes-AKM1995M-2019-06-12-14-07-17.csv,AKM1995M,2019-06-12-14-07-17,6,13,0.6812171726239917,left,stripes-4,heavy poles sphere,right,right,0.2880286436056849,0.18370047491589503
Data/shape-specificity-stripes-AKM1995M-2019-06-12-14-07-17.csv,AKM1995M,2019-06-12-14-07-17,6,14,0.5239598974129157,right,heavy poles sphere,heavy poles sphere,right,right,0.2577482874448833,0.22381564146598976
Data/shape-specificity-stripes-AKM1995M-2019-06-12-14-07-17.csv,AKM1995M,2019-06-12-14-07-17,6,15,0.6713311185417447,left,heavy poles sphere,stripes-4,right,right,0.403905499488701,0.19179030930308727
Data/shape-specificity-stripes-AKM1995M-2019-06-12-14-07-17.csv,AKM1995M,2019-06-12-14-07-17,6,16,0.5293575287744468,left,stripes-4,heavy poles sphere,right,right,0.28751737278980727,0.223806622698703
Data/shape-specificity-stripes-AKM1995M-2019-06-12-14-07-17.csv,AKM1995M,2019-06-12-14-07-17,6,17,0.5837331651976242,right,stripes-8,stripes-4,right,right,0.3391513713036147,0.2158141288009574
Data/shape-specificity-stripes-AKM1995M-2019-06-12-14-07-17.csv,AKM1995M,2019-06-12-14-07-17,6,18,0.6464309593474018,right,stripes-8,stripes-8,right,right,0.3866992461867085,0.22379387202772705
Data/shape-specificity-stripes-AKM1995M-2019-06-12-14-07-17.csv,AKM1995M,2019-06-12-14-07-17,6,19,0.614896545279904,left,stripes-4,stripes-2,right,right,0.22428959324406605,0.1996947924703818
Data/shape-specificity-stripes-AKM1995M-2019-06-12-14-07-17.csv,AKM1995M,2019-06-12-14-07-17,6,20,0.6609043218657006,right,stripes-2,stripes-2,right,right,0.27646160788435736,0.19182918330125176
Data/shape-specificity-stripes-AKM1995M-2019-06-12-14-07-17.csv,AKM1995M,2019-06-12-14-07-17,6,21,0.5993989427703144,right,heavy poles sphere,stripes-4,right,right,0.29814148082550673,0.1998745458349731
Data/shape-specificity-stripes-AKM1995M-2019-06-12-14-07-17.csv,AKM1995M,2019-06-12-14-07-17,6,22,0.5876974979184726,right,heavy poles sphere,stripes-2,right,right,0.2632391618512884,0.20773082524510755
Data/shape-specificity-stripes-AKM1995M-2019-06-12-14-07-17.csv,AKM1995M,2019-06-12-14-07-17,6,23,0.686581873427368,right,stripes-2,stripes-4,right,right,0.19206958010181552,0.21580946392123224
Data/shape-specificity-stripes-AKM1995M-2019-06-12-14-07-17.csv,AKM1995M,2019-06-12-14-07-17,6,24,0.5329578028691488,right,heavy poles sphere,stripes-8,right,right,0.30726660751588497,0.20770874481468127
Data/shape-specificity-stripes-AKM1995M-2019-06-12-14-07-17.csv,AKM1995M,2019-06-12-14-07-17,6,25,0.5327491723090781,right,stripes-2,stripes-8,right,right,0.2089579995999884,0.2156978178004465
Data/shape-specificity-stripes-AKM1995M-2019-06-12-14-07-17.csv,AKM1995M,2019-06-12-14-07-17,6,26,0.6291830580112073,left,heavy poles sphere,heavy poles sphere,right,right,0.25665639460157763,0.2157205202147452
Data/shape-specificity-stripes-AKM1995M-2019-06-12-14-07-17.csv,AKM1995M,2019-06-12-14-07-17,6,27,0.6148865648980248,left,stripes-4,stripes-8,right,right,0.2682840737584229,0.19972184877269683
Data/shape-specificity-stripes-AKM1995M-2019-06-12-14-07-17.csv,AKM1995M,2019-06-12-14-07-17,6,28,0.62955275401858,right,stripes-4,stripes-4,right,right,0.24786713925004733,0.20769599414370532
Data/shape-specificity-stripes-AKM1995M-2019-06-12-14-07-17.csv,AKM1995M,2019-06-12-14-07-17,6,29,0.5031770825485148,left,stripes-8,heavy poles sphere,right,right,0.2262628373600819,0.18375707545601472
Data/shape-specificity-stripes-AKM1995M-2019-06-12-14-07-17.csv,AKM1995M,2019-06-12-14-07-17,6,30,0.5333125284369946,left,stripes-2,heavy poles sphere,right,right,0.28532767825527117,0.17594402393160635
Data/shape-specificity-stripes-AKM1995M-2019-06-12-14-07-17.csv,AKM1995M,2019-06-12-14-07-17,6,31,0.6350013966630641,left,stripes-8,stripes-2,right,right,0.22494827425907715,0.1998195002547618
Data/shape-specificity-stripes-AKM1995M-2019-06-12-14-07-17.csv,AKM1995M,2019-06-12-14-07-17,6,32,0.68960325696734,left,heavy poles sphere,heavy poles sphere,right,right,0.24595982543405626,0.18379999234957722
Data/shape-specificity-stripes-AKM1995M-2019-06-12-14-07-17.csv,AKM1995M,2019-06-12-14-07-17,6,33,0.5602776130327335,right,stripes-4,stripes-8,right,right,0.18967183193217352,0.1839131934307261
Data/shape-specificity-stripes-AKM1995M-2019-06-12-14-07-17.csv,AKM1995M,2019-06-12-14-07-17,6,34,0.6799140767556263,left,stripes-2,stripes-4,right,right,0.17066617903128645,0.18396201917130384
Data/shape-specificity-stripes-AKM1995M-2019-06-12-14-07-17.csv,AKM1995M,2019-06-12-14-07-17,6,35,0.6080236133736939,right,stripes-4,stripes-4,right,right,0.2596985181544369,0.17597730007355494
Data/shape-specificity-stripes-AKM1995M-2019-06-12-14-07-17.csv,AKM1995M,2019-06-12-14-07-17,6,36,0.5517085931189645,left,stripes-8,stripes-4,right,right,0.28336594084248645,0.2158290564161689
Data/shape-specificity-stripes-AKM1995M-2019-06-12-14-07-17.csv,AKM1995M,2019-06-12-14-07-17,6,37,0.6652111677499281,left,stripes-8,stripes-8,right,right,0.22834244073374066,0.21581537276870222
Data/shape-specificity-stripes-AKM1995M-2019-06-12-14-07-17.csv,AKM1995M,2019-06-12-14-07-17,6,38,0.6523089551544281,right,stripes-2,stripes-8,right,right,0.19128650229504274,0.20786299683686593
Data/shape-specificity-stripes-AKM1995M-2019-06-12-14-07-17.csv,AKM1995M,2019-06-12-14-07-17,6,39,0.6952996176073855,right,heavy poles sphere,stripes-8,right,right,0.2842388953313275,0.2159466113844246
Data/shape-specificity-stripes-AKM1995M-2019-06-12-14-07-17.csv,AKM1995M,2019-06-12-14-07-17,6,40,0.6663707856037943,right,stripes-8,heavy poles sphere,right,right,0.26181419659769745,0.23196860722555357
Data/shape-specificity-stripes-AKM1995M-2019-06-12-14-07-17.csv,AKM1995M,2019-06-12-14-07-17,6,41,0.6789088045716176,right,stripes-2,stripes-2,right,right,0.3180608281654713,0.19183851306024735
Data/shape-specificity-stripes-AKM1995M-2019-06-12-14-07-17.csv,AKM1995M,2019-06-12-14-07-17,6,42,0.5039644535737419,right,stripes-4,stripes-2,right,right,0.029060334621135553,0.19993145736725637
Data/shape-specificity-stripes-AKM1995M-2019-06-12-14-07-17.csv,AKM1995M,2019-06-12-14-07-17,6,43,0.6654346641383686,left,stripes-8,stripes-2,right,right,0.17665308564710358,2.007802477797668
Data/shape-specificity-stripes-AKM1995M-2019-06-12-14-07-17.csv,AKM1995M,2019-06-12-14-07-17,6,44,0.5884674287509009,left,heavy poles sphere,stripes-2,right,right,0.2164277159786252,0.21585175883092234
Data/shape-specificity-stripes-AKM1995M-2019-06-12-14-07-17.csv,AKM1995M,2019-06-12-14-07-17,6,45,0.5184533549851146,left,stripes-2,heavy poles sphere,right,right,0.23485989966775378,0.2238156414664445
Data/shape-specificity-stripes-AKM1995M-2019-06-12-14-07-17.csv,AKM1995M,2019-06-12-14-07-17,6,46,0.5777557577282896,left,heavy poles sphere,stripes-4,right,right,0.21002874498844903,0.20768479843218302
Data/shape-specificity-stripes-AKM1995M-2019-06-12-14-07-17.csv,AKM1995M,2019-06-12-14-07-17,6,47,0.5441167419697744,left,stripes-4,heavy poles sphere,right,right,0.18826521520486494,1.5038371745508812
Data/shape-specificity-stripes-AKM1995M-2019-06-12-14-07-17.csv,AKM1995M,2019-06-12-14-07-17,7,0,0.5274299468758089,right,heavy poles sphere,stripes-2,right,right,0.2837217156684346,0.2078309646631169
Data/shape-specificity-stripes-AKM1995M-2019-06-12-14-07-17.csv,AKM1995M,2019-06-12-14-07-17,7,1,0.6565532333118418,right,heavy poles sphere,heavy poles sphere,right,right,0.3035415455742623,0.2076546322100512
Data/shape-specificity-stripes-AKM1995M-2019-06-12-14-07-17.csv,AKM1995M,2019-06-12-14-07-17,7,2,0.6403779833097624,right,stripes-4,heavy poles sphere,right,right,0.3689241885517731,0.20777996197830362
Data/shape-specificity-stripes-AKM1995M-2019-06-12-14-07-17.csv,AKM1995M,2019-06-12-14-07-17,7,3,0.5246755057586464,right,stripes-8,stripes-4,right,right,0.16462889171452844,0.23995270433943006
Data/shape-specificity-stripes-AKM1995M-2019-06-12-14-07-17.csv,AKM1995M,2019-06-12-14-07-17,7,4,0.5528295419164017,right,stripes-8,stripes-2,right,right,0.2369998354852214,0.19189200368055026
Data/shape-specificity-stripes-AKM1995M-2019-06-12-14-07-17.csv,AKM1995M,2019-06-12-14-07-17,7,5,0.6451966928307374,right,heavy poles sphere,stripes-4,right,right,0.30676777637927444,0.19188858276902465
Data/shape-specificity-stripes-AKM1995M-2019-06-12-14-07-17.csv,AKM1995M,2019-06-12-14-07-17,7,6,0.5243699006485874,right,stripes-4,stripes-8,right,right,0.2562975098562674,0.20792861614472713
Data/shape-specificity-stripes-AKM1995M-2019-06-12-14-07-17.csv,AKM1995M,2019-06-12-14-07-17,7,7,0.6519812705619139,right,stripes-2,stripes-4,right,right,0.2512976917864762,0.18381149905280836
Data/shape-specificity-stripes-AKM1995M-2019-06-12-14-07-17.csv,AKM1995M,2019-06-12-14-07-17,7,8,0.6026631929938544,right,stripes-8,stripes-8,right,right,0.12891550565609577,0.19183851306024735
Data/shape-specificity-stripes-AKM1995M-2019-06-12-14-07-17.csv,AKM1995M,2019-06-12-14-07-17,7,9,0.5707561671246235,left,stripes-2,heavy poles sphere,right,right,0.2060825677485809,0.19185157472338688
Data/shape-specificity-stripes-AKM1995M-2019-06-12-14-07-17.csv,AKM1995M,2019-06-12-14-07-17,7,10,0.6537594307025796,right,stripes-2,stripes-8,right,right,0.3303841963825107,0.1998471785404945
Data/shape-specificity-stripes-AKM1995M-2019-06-12-14-07-17.csv,AKM1995M,2019-06-12-14-07-17,7,11,0.6555718600520448,right,stripes-8,heavy poles sphere,right,right,0.2512874290509899,0.21579640225854746
Data/shape-specificity-stripes-AKM1995M-2019-06-12-14-07-17.csv,AKM1995M,2019-06-12-14-07-17,7,12,0.5294837424070464,left,stripes-2,stripes-2,right,right,0.08239856918817168,0.1759088818375858
Data/shape-specificity-stripes-AKM1995M-2019-06-12-14-07-17.csv,AKM1995M,2019-06-12-14-07-17,7,13,0.6818894881540268,right,heavy poles sphere,stripes-8,right,right,0.4206527286282835,0.19180648088649832
Data/shape-specificity-stripes-AKM1995M-2019-06-12-14-07-17.csv,AKM1995M,2019-06-12-14-07-17,7,14,0.6984663595057091,left,stripes-4,stripes-2,right,right,0.22336750202202893,0.6878505073987071
Data/shape-specificity-stripes-AKM1995M-2019-06-12-14-07-17.csv,AKM1995M,2019-06-12-14-07-17,7,15,0.6431882211007358,left,stripes-4,stripes-4,right,right,0.2720321491069626,0.19180088303073717
Data/shape-specificity-stripes-AKM1995M-2019-06-12-14-07-17.csv,AKM1995M,2019-06-12-14-07-17,7,16,0.6559524119382445,left,stripes-2,stripes-8,right,right,0.1943836714281133,0.1838186518684779
Data/shape-specificity-stripes-AKM1995M-2019-06-12-14-07-17.csv,AKM1995M,2019-06-12-14-07-17,7,17,0.6385278980282967,left,stripes-4,heavy poles sphere,right,right,0.18618125794409934,0.19971220802108292
Data/shape-specificity-stripes-AKM1995M-2019-06-12-14-07-17.csv,AKM1995M,2019-06-12-14-07-17,7,18,0.612067630529532,right,heavy poles sphere,stripes-4,right,right,0.1951173015099812,0.18382145079658585
Data/shape-specificity-stripes-AKM1995M-2019-06-12-14-07-17.csv,AKM1995M,2019-06-12-14-07-17,7,19,0.6990303325338083,left,stripes-8,heavy poles sphere,right,right,0.008940086462189356,0.20768542041605542
Data/shape-specificity-stripes-AKM1995M-2019-06-12-14-07-17.csv,AKM1995M,2019-06-12-14-07-17,7,20,0.6039226064722768,left,heavy poles sphere,stripes-8,right,right,0.22403706775639876,0.1677783075010666
Data/shape-specificity-stripes-AKM1995M-2019-06-12-14-07-17.csv,AKM1995M,2019-06-12-14-07-17,7,21,0.5830836730563246,left,stripes-8,stripes-2,right,right,0.23174904688721654,0.18394460362014797
Data/shape-specificity-stripes-AKM1995M-2019-06-12-14-07-17.csv,AKM1995M,2019-06-12-14-07-17,7,22,0.5359900429013978,left,stripes-4,stripes-8,right,right,0.23206967961914415,0.1918018160063184
Data/shape-specificity-stripes-AKM1995M-2019-06-12-14-07-17.csv,AKM1995M,2019-06-12-14-07-17,7,23,0.6331962032278005,left,stripes-4,stripes-2,right,right,0.14837178593688805,0.19995975763777096
Data/shape-specificity-stripes-AKM1995M-2019-06-12-14-07-17.csv,AKM1995M,2019-06-12-14-07-17,7,24,0.6497799186644752,left,stripes-2,stripes-4,right,right,0.20347458900096171,0.1759679703141046
Data/shape-specificity-stripes-AKM1995M-2019-06-12-14-07-17.csv,AKM1995M,2019-06-12-14-07-17,7,25,0.5761289610686723,right,stripes-2,stripes-2,right,right,0.372508371126969,0.18394802453258308
Data/shape-specificity-stripes-AKM1995M-2019-06-12-14-07-17.csv,AKM1995M,2019-06-12-14-07-17,7,26,0.6960390048937306,left,stripes-2,heavy poles sphere,right,right,0.16267959398101084,0.711886144591972
Data/shape-specificity-stripes-AKM1995M-2019-06-12-14-07-17.csv,AKM1995M,2019-06-12-14-07-17,7,27,0.6641299416421036,right,stripes-8,stripes-8,right,right,0.17991165961802835,0.1999697093810937
Data/shape-specificity-stripes-AKM1995M-2019-06-12-14-07-17.csv,AKM1995M,2019-06-12-14-07-17,7,28,0.526395404716166,left,stripes-4,stripes-4,right,right,0.15103014538544812,0.17580563250021441
Data/shape-specificity-stripes-AKM1995M-2019-06-12-14-07-17.csv,AKM1995M,2019-06-12-14-07-17,7,29,0.5861419693756421,left,heavy poles sphere,stripes-2,right,right,0.05156495829442065,0.19182078651738266
Data/shape-specificity-stripes-AKM1995M-2019-06-12-14-07-17.csv,AKM1995M,2019-06-12-14-07-17,7,30,0.5439162927912694,right,stripes-8,stripes-4,right,right,0.17137959463434527,0.17595210972331188
Data/shape-specificity-stripes-AKM1995M-2019-06-12-14-07-17.csv,AKM1995M,2019-06-12-14-07-17,7,31,0.5077201201926974,right,heavy poles sphere,heavy poles sphere,right,right,0.10728103754399854,0.2078054633202555
Data/shape-specificity-stripes-AKM1995M-2019-06-12-14-07-17.csv,AKM1995M,2019-06-12-14-07-17,7,32,0.6227897513998587,left,stripes-8,stripes-8,right,right,0.07701436503066361,0.19183104925286898
Data/shape-specificity-stripes-AKM1995M-2019-06-12-14-07-17.csv,AKM1995M,2019-06-12-14-07-17,7,33,0.5010097409399525,left,stripes-4,heavy poles sphere,right,right,0.13491360798298047,0.17582367003478794
Data/shape-specificity-stripes-AKM1995M-2019-06-12-14-07-17.csv,AKM1995M,2019-06-12-14-07-17,7,34,0.5883838034564934,right,heavy poles sphere,stripes-8,right,right,0.13943107749082628,0.1758550802251193
Data/shape-specificity-stripes-AKM1995M-2019-06-12-14-07-17.csv,AKM1995M,2019-06-12-14-07-17,7,35,0.5937438862674622,right,heavy poles sphere,stripes-4,right,right,0.26399611633223685,0.17571295688958344
Data/shape-specificity-stripes-AKM1995M-2019-06-12-14-07-17.csv,AKM1995M,2019-06-12-14-07-17,7,36,0.5827486918804126,right,stripes-2,stripes-8,right,right,0.20623433183527595,0.1838335794836894
Data/shape-specificity-stripes-AKM1995M-2019-06-12-14-07-17.csv,AKM1995M,2019-06-12-14-07-17,7,37,0.5024615535400917,right,stripes-2,heavy poles sphere,right,right,0.16336813022599017,0.18380714516524677
Data/shape-specificity-stripes-AKM1995M-2019-06-12-14-07-17.csv,AKM1995M,2019-06-12-14-07-17,7,38,0.5324683520700965,right,stripes-8,stripes-4,right,right,0.07996287999731067,0.19184442190817208
Data/shape-specificity-stripes-AKM1995M-2019-06-12-14-07-17.csv,AKM1995M,2019-06-12-14-07-17,7,39,0.5107095110295397,right,stripes-4,stripes-4,right,right,0.03990555795553519,0.1917738267279674
Data/shape-specificity-stripes-AKM1995M-2019-06-12-14-07-17.csv,AKM1995M,2019-06-12-14-07-17,7,40,0.6601247339586149,left,stripes-8,heavy poles sphere,right,right,0.06099610109322384,0.19972402571647763
Data/shape-specificity-stripes-AKM1995M-2019-06-12-14-07-17.csv,AKM1995M,2019-06-12-14-07-17,7,41,0.695011440917197,left,stripes-2,stripes-4,right,right,0.11799408928663979,0.19980581660729513
Data/shape-specificity-stripes-AKM1995M-2019-06-12-14-07-17.csv,AKM1995M,2019-06-12-14-07-17,7,42,0.521834439381008,left,stripes-4,stripes-2,right,right,0.147892858286923,0.17571015796238498
Data/shape-specificity-stripes-AKM1995M-2019-06-12-14-07-17.csv,AKM1995M,2019-06-12-14-07-17,7,43,0.5198423732917664,left,stripes-4,stripes-8,right,right,0.24160687068388143,0.18382331674820307
Data/shape-specificity-stripes-AKM1995M-2019-06-12-14-07-17.csv,AKM1995M,2019-06-12-14-07-17,7,44,0.5042667498829344,left,heavy poles sphere,stripes-2,right,right,0.26139715635144967,0.1758292678905491
Data/shape-specificity-stripes-AKM1995M-2019-06-12-14-07-17.csv,AKM1995M,2019-06-12-14-07-17,7,45,0.5849003418145348,left,heavy poles sphere,heavy poles sphere,right,right,0.4299178017099621,0.17570331613887902
Data/shape-specificity-stripes-AKM1995M-2019-06-12-14-07-17.csv,AKM1995M,2019-06-12-14-07-17,7,46,0.6471515122458764,left,stripes-8,stripes-2,right,right,0.22660026365929298,0.15987320234989966
Data/shape-specificity-stripes-AKM1995M-2019-06-12-14-07-17.csv,AKM1995M,2019-06-12-14-07-17,7,47,0.6844152270283308,right,stripes-2,stripes-2,right,right,0.2629524272456365,0.18380341326155758
Data/shape-specificity-stripes-AKM1995M-2019-06-12-14-07-17.csv,AKM1995M,2019-06-12-14-07-17,8,0,0.5952991470122844,right,stripes-4,stripes-2,right,right,0.17417976642627764,0.19995167184606544
Data/shape-specificity-stripes-AKM1995M-2019-06-12-14-07-17.csv,AKM1995M,2019-06-12-14-07-17,8,1,0.6175866908923642,right,heavy poles sphere,stripes-4,right,right,0.12732540366005196,0.2157267400548335
Data/shape-specificity-stripes-AKM1995M-2019-06-12-14-07-17.csv,AKM1995M,2019-06-12-14-07-17,8,2,0.6946042897969111,right,stripes-4,stripes-4,right,right,0.028907637558859278,0.16796832360068947
Data/shape-specificity-stripes-AKM1995M-2019-06-12-14-07-17.csv,AKM1995M,2019-06-12-14-07-17,8,3,0.6566713855889461,right,heavy poles sphere,heavy poles sphere,right,right,0.21211145828192457,0.16781904745039355
Data/shape-specificity-stripes-AKM1995M-2019-06-12-14-07-17.csv,AKM1995M,2019-06-12-14-07-17,8,4,0.5632075612447673,left,stripes-2,heavy poles sphere,right,right,0.20732404773480084,0.15170219905530757
Data/shape-specificity-stripes-AKM1995M-2019-06-12-14-07-17.csv,AKM1995M,2019-06-12-14-07-17,8,5,0.5374882585794943,left,stripes-2,stripes-2,right,left,0.5390004157966359,0.2798109915142959
Data/shape-specificity-stripes-AKM1995M-2019-06-12-14-07-17.csv,AKM1995M,2019-06-12-14-07-17,8,6,0.5146178895201569,right,stripes-2,stripes-4,right,right,0.22920855339907575,0.1757409461683892
Data/shape-specificity-stripes-AKM1995M-2019-06-12-14-07-17.csv,AKM1995M,2019-06-12-14-07-17,8,7,0.5734726345585184,left,stripes-8,stripes-2,right,right,0.1734791014946495,0.1598402371996599
Data/shape-specificity-stripes-AKM1995M-2019-06-12-14-07-17.csv,AKM1995M,2019-06-12-14-07-17,8,8,0.6753100062952956,left,stripes-2,stripes-8,right,right,0.2765294041364541,0.16782277935408274
Data/shape-specificity-stripes-AKM1995M-2019-06-12-14-07-17.csv,AKM1995M,2019-06-12-14-07-17,8,9,0.6262906092057811,right,stripes-4,heavy poles sphere,right,right,0.24221050611777173,0.1759517987311483
Data/shape-specificity-stripes-AKM1995M-2019-06-12-14-07-17.csv,AKM1995M,2019-06-12-14-07-17,8,10,0.6923852423855628,left,heavy poles sphere,stripes-8,right,right,0.2546620030311715,0.15980758304203846
Data/shape-specificity-stripes-AKM1995M-2019-06-12-14-07-17.csv,AKM1995M,2019-06-12-14-07-17,8,11,0.665608172044429,right,stripes-4,stripes-8,right,right,0.17878680162493765,0.1758211820992983
Data/shape-specificity-stripes-AKM1995M-2019-06-12-14-07-17.csv,AKM1995M,2019-06-12-14-07-17,8,12,0.5300923223329711,right,stripes-8,heavy poles sphere,right,right,0.0959407149771323,0.18384415321088454
Data/shape-specificity-stripes-AKM1995M-2019-06-12-14-07-17.csv,AKM1995M,2019-06-12-14-07-17,8,13,0.5398920106222742,left,stripes-8,stripes-8,right,right,0.06250410120674132,0.1758270909467683
Data/shape-specificity-stripes-AKM1995M-2019-06-12-14-07-17.csv,AKM1995M,2019-06-12-14-07-17,8,14,0.5427013233082765,left,heavy poles sphere,stripes-2,right,right,0.262955537165908,0.15989901468401513
Data/shape-specificity-stripes-AKM1995M-2019-06-12-14-07-17.csv,AKM1995M,2019-06-12-14-07-17,8,15,0.6246223582345212,right,stripes-8,stripes-4,right,right,0.22865623164170756,0.16794406622602764
Data/shape-specificity-stripes-AKM1995M-2019-06-12-14-07-17.csv,AKM1995M,2019-06-12-14-07-17,8,16,0.6989798640372458,left,stripes-4,stripes-2,right,right,0.2163838661090267,0.14371468102945073
Data/shape-specificity-stripes-AKM1995M-2019-06-12-14-07-17.csv,AKM1995M,2019-06-12-14-07-17,8,17,0.5802845269776964,left,heavy poles sphere,stripes-4,right,right,0.1875499336501889,0.16771362116878663
Data/shape-specificity-stripes-AKM1995M-2019-06-12-14-07-17.csv,AKM1995M,2019-06-12-14-07-17,8,18,0.6564739403335093,right,stripes-2,stripes-2,right,right,0.26641594493230514,0.15182317493554365
Data/shape-specificity-stripes-AKM1995M-2019-06-12-14-07-17.csv,AKM1995M,2019-06-12-14-07-17,8,19,0.5336665480014319,left,stripes-8,stripes-2,right,right,0.1234849636934996,0.855870455668537
Data/shape-specificity-stripes-AKM1995M-2019-06-12-14-07-17.csv,AKM1995M,2019-06-12-14-07-17,8,20,0.6534153396707941,right,stripes-4,stripes-4,right,right,0.0413504266966811,0.17581962713938992
Data/shape-specificity-stripes-AKM1995M-2019-06-12-14-07-17.csv,AKM1995M,2019-06-12-14-07-17,8,21,0.5966949895801335,right,heavy poles sphere,heavy poles sphere,right,right,0.3218869625006846,0.15981473585725325
Data/shape-specificity-stripes-AKM1995M-2019-06-12-14-07-17.csv,AKM1995M,2019-06-12-14-07-17,8,22,0.697256126809837,left,stripes-2,stripes-4,right,right,0.226238268994166,0.1516835395364069
Data/shape-specificity-stripes-AKM1995M-2019-06-12-14-07-17.csv,AKM1995M,2019-06-12-14-07-17,8,23,0.5949412785494979,right,heavy poles sphere,stripes-2,right,right,0.24326352496336767,0.1598352613282259
Data/shape-specificity-stripes-AKM1995M-2019-06-12-14-07-17.csv,AKM1995M,2019-06-12-14-07-17,8,24,0.658197355643969,right,stripes-4,stripes-8,right,right,0.12747499080251146,0.1518688907572141
Data/shape-specificity-stripes-AKM1995M-2019-06-12-14-07-17.csv,AKM1995M,2019-06-12-14-07-17,8,25,0.6164621861191054,left,stripes-8,heavy poles sphere,right,right,0.23662944403668007,0.1598262425604844
Data/shape-specificity-stripes-AKM1995M-2019-06-12-14-07-17.csv,AKM1995M,2019-06-12-14-07-17,8,26,0.5562352928612314,right,stripes-4,heavy poles sphere,right,right,0.16656637175265132,0.15167234382533934
Data/shape-specificity-stripes-AKM1995M-2019-06-12-14-07-17.csv,AKM1995M,2019-06-12-14-07-17,8,27,0.5207566622598703,left,stripes-8,stripes-4,right,right,0.251627032293527,0.14365808048933104
Data/shape-specificity-stripes-AKM1995M-2019-06-12-14-07-17.csv,AKM1995M,2019-06-12-14-07-17,8,28,0.6679776977997577,left,stripes-2,stripes-8,right,right,0.184554147901963,0.15981877875356076
Data/shape-specificity-stripes-AKM1995M-2019-06-12-14-07-17.csv,AKM1995M,2019-06-12-14-07-17,8,29,0.6717276891859323,left,stripes-8,stripes-8,right,right,0.13570135066947842,0.1516801186248813
Data/shape-specificity-stripes-AKM1995M-2019-06-12-14-07-17.csv,AKM1995M,2019-06-12-14-07-17,8,30,0.5371460753997126,left,stripes-2,heavy poles sphere,right,right,0.19946217046890524,0.13580491099855863
Data/shape-specificity-stripes-AKM1995M-2019-06-12-14-07-17.csv,AKM1995M,2019-06-12-14-07-17,8,31,0.6172258543007058,left,heavy poles sphere,stripes-8,right,right,0.1859626305817983,0.15190745376230552
Data/shape-specificity-stripes-AKM1995M-2019-06-12-14-07-17.csv,AKM1995M,2019-06-12-14-07-17,8,32,0.543295364808223,left,stripes-8,heavy poles sphere,right,right,0.1916876819495883,0.15194508379227045
Data/shape-specificity-stripes-AKM1995M-2019-06-12-14-07-17.csv,AKM1995M,2019-06-12-14-07-17,8,33,0.5240350802434428,left,stripes-2,stripes-8,right,right,0.2208525098762948,0.159848633983529
Data/shape-specificity-stripes-AKM1995M-2019-06-12-14-07-17.csv,AKM1995M,2019-06-12-14-07-17,8,34,0.596859387410786,right,stripes-8,stripes-8,right,right,0.11721287743148423,0.1758659649440233
Data/shape-specificity-stripes-AKM1995M-2019-06-12-14-07-17.csv,AKM1995M,2019-06-12-14-07-17,8,35,0.6432129742320714,left,stripes-2,heavy poles sphere,right,right,0.24835384169955432,0.15981162593743647
Data/shape-specificity-stripes-AKM1995M-2019-06-12-14-07-17.csv,AKM1995M,2019-06-12-14-07-17,8,36,0.6063859281125982,left,stripes-4,stripes-8,right,right,0.031398994314258744,0.17599378264867482
Data/shape-specificity-stripes-AKM1995M-2019-06-12-14-07-17.csv,AKM1995M,2019-06-12-14-07-17,8,37,0.5077959938758392,right,stripes-8,stripes-2,right,right,0.32264764888532227,0.15197027414251352
Data/shape-specificity-stripes-AKM1995M-2019-06-12-14-07-17.csv,AKM1995M,2019-06-12-14-07-17,8,38,0.5960444342006794,left,stripes-2,stripes-4,right,right,0.1749749729206087,0.14381979631934882
Data/shape-specificity-stripes-AKM1995M-2019-06-12-14-07-17.csv,AKM1995M,2019-06-12-14-07-17,8,39,0.6140042386027742,right,stripes-8,stripes-4,right,right,0.2494006407055167,0.14395632179821405
Data/shape-specificity-stripes-AKM1995M-2019-06-12-14-07-17.csv,AKM1995M,2019-06-12-14-07-17,8,40,0.6726978112047848,left,stripes-4,stripes-4,right,right,0.27040006319339227,0.15183716957471916
Data/shape-specificity-stripes-AKM1995M-2019-06-12-14-07-17.csv,AKM1995M,2019-06-12-14-07-17,8,41,0.5106401634826482,left,stripes-4,stripes-2,right,right,0.26491447565013004,0.15983090744020956
Data/shape-specificity-stripes-AKM1995M-2019-06-12-14-07-17.csv,AKM1995M,2019-06-12-14-07-17,8,42,0.6541783388357035,right,heavy poles sphere,heavy poles sphere,right,right,0.262638325345506,0.15171339476682988
Data/shape-specificity-stripes-AKM1995M-2019-06-12-14-07-17.csv,AKM1995M,2019-06-12-14-07-17,8,43,0.5585212458024982,right,heavy poles sphere,stripes-2,right,right,0.27225792928447845,0.1438201073106029
Data/shape-specificity-stripes-AKM1995M-2019-06-12-14-07-17.csv,AKM1995M,2019-06-12-14-07-17,8,44,0.5771611166526105,right,heavy poles sphere,stripes-4,right,right,0.26532840597656104,0.15182783981526882
Data/shape-specificity-stripes-AKM1995M-2019-06-12-14-07-17.csv,AKM1995M,2019-06-12-14-07-17,8,45,0.6892825605201158,left,stripes-4,heavy poles sphere,right,right,0.23762150845413998,0.15182628485536043
Data/shape-specificity-stripes-AKM1995M-2019-06-12-14-07-17.csv,AKM1995M,2019-06-12-14-07-17,8,46,0.6803138885552389,right,heavy poles sphere,stripes-8,right,right,0.23527072007391325,0.15179238672953943
Data/shape-specificity-stripes-AKM1995M-2019-06-12-14-07-17.csv,AKM1995M,2019-06-12-14-07-17,8,47,0.5720124817534668,left,stripes-2,stripes-2,right,right,0.29246183428676886,0.15174169503688972
Data/shape-specificity-stripes-AKM1995M-2019-06-12-14-07-17.csv,AKM1995M,2019-06-12-14-07-17,9,0,0.5820636763266652,right,stripes-8,stripes-2,right,right,0.2306008644955,0.15978270368350422
Data/shape-specificity-stripes-AKM1995M-2019-06-12-14-07-17.csv,AKM1995M,2019-06-12-14-07-17,9,1,0.6153942171353631,left,stripes-8,stripes-4,right,right,0.2616698963183808,0.1519401079203817
Data/shape-specificity-stripes-AKM1995M-2019-06-12-14-07-17.csv,AKM1995M,2019-06-12-14-07-17,9,2,0.5397531562007227,left,stripes-4,stripes-2,right,right,0.22219661721555894,0.16767412518720448
Data/shape-specificity-stripes-AKM1995M-2019-06-12-14-07-17.csv,AKM1995M,2019-06-12-14-07-17,9,3,0.5418797019000553,right,heavy poles sphere,heavy poles sphere,right,right,0.250515857947903,0.1598557867987438
Data/shape-specificity-stripes-AKM1995M-2019-06-12-14-07-17.csv,AKM1995M,2019-06-12-14-07-17,9,4,0.6251530637903222,right,heavy poles sphere,stripes-4,right,right,0.25763664132364283,0.1677182860485118
Data/shape-specificity-stripes-AKM1995M-2019-06-12-14-07-17.csv,AKM1995M,2019-06-12-14-07-17,9,5,0.5974188697415503,right,stripes-2,stripes-2,right,right,0.25583941866898385,0.15987506830197162
Data/shape-specificity-stripes-AKM1995M-2019-06-12-14-07-17.csv,AKM1995M,2019-06-12-14-07-17,9,6,0.6840958287080724,left,stripes-8,stripes-8,right,right,0.09171122404268317,0.1836432523914482
Data/shape-specificity-stripes-AKM1995M-2019-06-12-14-07-17.csv,AKM1995M,2019-06-12-14-07-17,9,7,0.625163987219096,left,stripes-2,stripes-4,right,right,0.23866892944442952,0.15184960925398627
Data/shape-specificity-stripes-AKM1995M-2019-06-12-14-07-17.csv,AKM1995M,2019-06-12-14-07-17,9,8,0.6613251583142417,left,stripes-4,stripes-4,right,right,0.29978009757041946,0.15166923390552256
Data/shape-specificity-stripes-AKM1995M-2019-06-12-14-07-17.csv,AKM1995M,2019-06-12-14-07-17,9,9,0.5023649315341255,right,heavy poles sphere,stripes-8,right,right,0.28613190351643425,0.14376723867462715
Data/shape-specificity-stripes-AKM1995M-2019-06-12-14-07-17.csv,AKM1995M,2019-06-12-14-07-17,9,10,0.6395452655215571,right,stripes-4,stripes-8,right,right,0.2583133598736822,0.19185157472338688
Data/shape-specificity-stripes-AKM1995M-2019-06-12-14-07-17.csv,AKM1995M,2019-06-12-14-07-17,9,11,0.6141198837386664,right,stripes-2,heavy poles sphere,right,right,0.2567095742301717,0.17582180408317072
Data/shape-specificity-stripes-AKM1995M-2019-06-12-14-07-17.csv,AKM1995M,2019-06-12-14-07-17,9,12,0.6464738325739834,left,stripes-8,heavy poles sphere,right,right,0.27035683530812094,0.16783584101722226
Data/shape-specificity-stripes-AKM1995M-2019-06-12-14-07-17.csv,AKM1995M,2019-06-12-14-07-17,9,13,0.5580878816079601,left,stripes-4,heavy poles sphere,right,right,0.2795932971275761,0.1436910456386613
Data/shape-specificity-stripes-AKM1995M-2019-06-12-14-07-17.csv,AKM1995M,2019-06-12-14-07-17,9,14,0.6171218266470316,left,heavy poles sphere,stripes-2,right,right,0.013828880394612497,0.19180492592613518
Data/shape-specificity-stripes-AKM1995M-2019-06-12-14-07-17.csv,AKM1995M,2019-06-12-14-07-17,9,15,0.5154711739579204,left,stripes-2,stripes-8,right,right,0.24039680088799287,0.16781687050661276
Data/shape-specificity-stripes-AKM1995M-2019-06-12-14-07-17.csv,AKM1995M,2019-06-12-14-07-17,9,16,0.6607633047774715,right,stripes-4,heavy poles sphere,right,right,0.10204828648056719,0.17588649041499593
Data/shape-specificity-stripes-AKM1995M-2019-06-12-14-07-17.csv,AKM1995M,2019-06-12-14-07-17,9,17,0.5772486913729903,left,stripes-2,stripes-2,right,right,0.2744886747605051,0.14398306710882025
Data/shape-specificity-stripes-AKM1995M-2019-06-12-14-07-17.csv,AKM1995M,2019-06-12-14-07-17,9,18,0.6677335163448647,left,stripes-2,stripes-4,right,right,0.21414845575372965,0.14382788211014486
Data/shape-specificity-stripes-AKM1995M-2019-06-12-14-07-17.csv,AKM1995M,2019-06-12-14-07-17,9,19,0.522079005708138,right,stripes-4,stripes-4,right,right,0.16267835001326603,0.1598240656167036
Data/shape-specificity-stripes-AKM1995M-2019-06-12-14-07-17.csv,AKM1995M,2019-06-12-14-07-17,9,20,0.5746033840739972,left,stripes-4,stripes-8,right,right,0.09376097218500945,0.19184846480402484
Data/shape-specificity-stripes-AKM1995M-2019-06-12-14-07-17.csv,AKM1995M,2019-06-12-14-07-17,9,21,0.5692096899338583,left,stripes-2,heavy poles sphere,right,right,0.139577554713469,0.1598473900148747
Data/shape-specificity-stripes-AKM1995M-2019-06-12-14-07-17.csv,AKM1995M,2019-06-12-14-07-17,9,22,0.5584829211849102,right,stripes-2,stripes-8,right,right,0.16873927272081346,0.18380341326155758
Data/shape-specificity-stripes-AKM1995M-2019-06-12-14-07-17.csv,AKM1995M,2019-06-12-14-07-17,9,23,0.5456767414179523,right,stripes-8,stripes-8,right,right,0.1078619705631354,0.17581651721957314
Data/shape-specificity-stripes-AKM1995M-2019-06-12-14-07-17.csv,AKM1995M,2019-06-12-14-07-17,9,24,0.5034949398956332,left,heavy poles sphere,stripes-4,right,right,0.26108647536239005,0.15982251065634046
Data/shape-specificity-stripes-AKM1995M-2019-06-12-14-07-17.csv,AKM1995M,2019-06-12-14-07-17,9,25,0.5392165080519904,right,stripes-8,heavy poles sphere,right,right,0.2628283414460384,0.16793255952325126
Data/shape-specificity-stripes-AKM1995M-2019-06-12-14-07-17.csv,AKM1995M,2019-06-12-14-07-17,9,26,0.634728061065819,left,heavy poles sphere,stripes-2,right,right,0.10785606171521067,0.16776337988540035
Data/shape-specificity-stripes-AKM1995M-2019-06-12-14-07-17.csv,AKM1995M,2019-06-12-14-07-17,9,27,0.5973754881065432,right,heavy poles sphere,stripes-8,right,right,0.321768785547647,0.17574094616884395
Data/shape-specificity-stripes-AKM1995M-2019-06-12-14-07-17.csv,AKM1995M,2019-06-12-14-07-17,9,28,0.5184493852676005,left,stripes-4,stripes-2,right,right,0.22482138953091635,0.1516919363193665
Data/shape-specificity-stripes-AKM1995M-2019-06-12-14-07-17.csv,AKM1995M,2019-06-12-14-07-17,9,29,0.6821869834013401,right,stripes-8,stripes-2,right,right,0.2776377795553344,0.15984770100749301
Data/shape-specificity-stripes-AKM1995M-2019-06-12-14-07-17.csv,AKM1995M,2019-06-12-14-07-17,9,30,0.5186602319822318,left,heavy poles sphere,heavy poles sphere,right,right,0.2654232585300633,0.15982686454481154
Data/shape-specificity-stripes-AKM1995M-2019-06-12-14-07-17.csv,AKM1995M,2019-06-12-14-07-17,9,31,0.5182068309059735,right,stripes-8,stripes-4,right,right,0.20321957557644055,0.1758482384020681
Data/shape-specificity-stripes-AKM1995M-2019-06-12-14-07-17.csv,AKM1995M,2019-06-12-14-07-17,9,32,0.5885315945848588,right,stripes-8,stripes-2,right,right,0.043591434907284565,0.16785450053612294
Data/shape-specificity-stripes-AKM1995M-2019-06-12-14-07-17.csv,AKM1995M,2019-06-12-14-07-17,9,33,0.670360585318598,right,heavy poles sphere,stripes-8,right,right,0.7847353940278481,0.87981839312305965
Data/shape-specificity-stripes-AKM1995M-2019-06-12-14-07-17.csv,AKM1995M,2019-06-12-14-07-17,9,34,0.6082799516194338,left,stripes-4,stripes-8,right,right,0.29134910498123645,0.18387618538508832
Data/shape-specificity-stripes-AKM1995M-2019-06-12-14-07-17.csv,AKM1995M,2019-06-12-14-07-17,9,35,0.5370114685822278,right,heavy poles sphere,stripes-4,right,right,0.27586792419424455,0.18375831942375953
Data/shape-specificity-stripes-AKM1995M-2019-06-12-14-07-17.csv,AKM1995M,2019-06-12-14-07-17,9,36,0.6716622299779829,right,stripes-4,stripes-2,right,right,0.26201665237658744,0.17586596494493278
Data/shape-specificity-stripes-AKM1995M-2019-06-12-14-07-17.csv,AKM1995M,2019-06-12-14-07-17,9,37,0.6954950154435511,right,stripes-8,stripes-8,right,right,0.0404342443225687,0.17568869951537636
Data/shape-specificity-stripes-AKM1995M-2019-06-12-14-07-17.csv,AKM1995M,2019-06-12-14-07-17,9,38,0.6137350768056715,left,heavy poles sphere,stripes-2,right,right,0.28834616641688626,0.1836880352366279
Data/shape-specificity-stripes-AKM1995M-2019-06-12-14-07-17.csv,AKM1995M,2019-06-12-14-07-17,9,39,0.5197421420077507,right,stripes-2,stripes-2,right,right,0.14316826812046202,0.16781873645777523
Data/shape-specificity-stripes-AKM1995M-2019-06-12-14-07-17.csv,AKM1995M,2019-06-12-14-07-17,9,40,0.6217661373521901,left,stripes-8,heavy poles sphere,right,right,0.1303952054995534,0.18370762773156457
Data/shape-specificity-stripes-AKM1995M-2019-06-12-14-07-17.csv,AKM1995M,2019-06-12-14-07-17,9,41,0.6108591710253612,left,stripes-2,stripes-4,right,right,0.28468205890385434,0.1998244761261958
Data/shape-specificity-stripes-AKM1995M-2019-06-12-14-07-17.csv,AKM1995M,2019-06-12-14-07-17,9,42,0.6165885244312084,left,stripes-2,stripes-8,right,right,0.28032630522557156,0.19183975702890166
Data/shape-specificity-stripes-AKM1995M-2019-06-12-14-07-17.csv,AKM1995M,2019-06-12-14-07-17,9,43,0.5869700382894326,left,heavy poles sphere,heavy poles sphere,right,right,0.17622516068149707,0.1676850099074727
Data/shape-specificity-stripes-AKM1995M-2019-06-12-14-07-17.csv,AKM1995M,2019-06-12-14-07-17,9,44,0.63790940977893,right,stripes-4,stripes-4,right,right,0.048414609532301256,0.18374059288180433
Data/shape-specificity-stripes-AKM1995M-2019-06-12-14-07-17.csv,AKM1995M,2019-06-12-14-07-17,9,45,0.5134904393116729,right,stripes-2,heavy poles sphere,right,right,0.2838635280113522,0.15984490207938507
Data/shape-specificity-stripes-AKM1995M-2019-06-12-14-07-17.csv,AKM1995M,2019-06-12-14-07-17,9,46,0.6980537471261453,left,stripes-8,stripes-4,right,right,0.16530032340142498,0.8078501839672754
Data/shape-specificity-stripes-AKM1995M-2019-06-12-14-07-17.csv,AKM1995M,2019-06-12-14-07-17,9,47,0.5284348106369329,right,stripes-4,heavy poles sphere,right,right,0.2886161074557094,0.16780194289185602
Data/shape-specificity-stripes-AKM1995M-2019-06-12-14-07-17.csv,AKM1995M,2019-06-12-14-07-17,10,0,0.5777920186956962,left,stripes-2,stripes-2,right,left,0.4841408084603245,0.5277011441712602
Data/shape-specificity-stripes-AKM1995M-2019-06-12-14-07-17.csv,AKM1995M,2019-06-12-14-07-17,10,1,0.5422404415677567,right,stripes-4,heavy poles sphere,right,right,0.3020186178455333,0.15986822647846566
Data/shape-specificity-stripes-AKM1995M-2019-06-12-14-07-17.csv,AKM1995M,2019-06-12-14-07-17,10,2,0.6544054350911158,left,heavy poles sphere,stripes-2,right,right,0.34513796692772303,0.15169566822351044
Data/shape-specificity-stripes-AKM1995M-2019-06-12-14-07-17.csv,AKM1995M,2019-06-12-14-07-17,10,3,0.5101253547496403,right,stripes-8,stripes-4,right,right,0.39986198175938625,0.11981121542794426
Data/shape-specificity-stripes-AKM1995M-2019-06-12-14-07-17.csv,AKM1995M,2019-06-12-14-07-17,10,4,0.5552759731157034,right,stripes-2,stripes-4,right,right,0.34816205294464453,0.1918456658759169
Data/shape-specificity-stripes-AKM1995M-2019-06-12-14-07-17.csv,AKM1995M,2019-06-12-14-07-17,10,5,0.5295099532433799,left,heavy poles sphere,stripes-8,right,right,0.266018497180994,0.1758314448343299
Data/shape-specificity-stripes-AKM1995M-2019-06-12-14-07-17.csv,AKM1995M,2019-06-12-14-07-17,10,6,0.6954003527100932,right,stripes-4,stripes-8,right,right,0.29156711035921035,0.18380745615741034
Data/shape-specificity-stripes-AKM1995M-2019-06-12-14-07-17.csv,AKM1995M,2019-06-12-14-07-17,10,7,0.5838881252644873,right,heavy poles sphere,stripes-4,right,right,0.3058537709484881,0.18388986903210025
Data/shape-specificity-stripes-AKM1995M-2019-06-12-14-07-17.csv,AKM1995M,2019-06-12-14-07-17,10,8,0.667800831965673,right,stripes-8,stripes-8,right,right,0.306812870216163,0.1677994549554569
Data/shape-specificity-stripes-AKM1995M-2019-06-12-14-07-17.csv,AKM1995M,2019-06-12-14-07-17,10,9,0.5129286025518955,right,stripes-8,heavy poles sphere,right,right,0.24314845793014683,0.1678352190338046
Data/shape-specificity-stripes-AKM1995M-2019-06-12-14-07-17.csv,AKM1995M,2019-06-12-14-07-17,10,10,0.6146478234488187,left,heavy poles sphere,heavy poles sphere,right,right,0.24440890842743102,0.16772792680058046
Data/shape-specificity-stripes-AKM1995M-2019-06-12-14-07-17.csv,AKM1995M,2019-06-12-14-07-17,10,11,0.699014440791045,right,stripes-4,stripes-2,right,right,0.2712978970412223,0.16768221097845526
Data/shape-specificity-stripes-AKM1995M-2019-06-12-14-07-17.csv,AKM1995M,2019-06-12-14-07-17,10,12,0.5546534126495766,right,stripes-4,stripes-4,right,right,0.04696911880728294,0.1918123897339683
Data/shape-specificity-stripes-AKM1995M-2019-06-12-14-07-17.csv,AKM1995M,2019-06-12-14-07-17,10,13,0.5495599120187531,right,stripes-8,stripes-2,right,right,0.2942301346874956,0.16768563189089036
Data/shape-specificity-stripes-AKM1995M-2019-06-12-14-07-17.csv,AKM1995M,2019-06-12-14-07-17,10,14,0.5478853446858694,left,stripes-2,heavy poles sphere,right,right,0.2697765242728565,0.1838805392726499
Data/shape-specificity-stripes-AKM1995M-2019-06-12-14-07-17.csv,AKM1995M,2019-06-12-14-07-17,10,15,0.587316898307899,right,stripes-2,stripes-8,right,right,0.2756048249784726,0.16768998577845196
Data/shape-specificity-stripes-AKM1995M-2019-06-12-14-07-17.csv,AKM1995M,2019-06-12-14-07-17,10,16,0.6576572889135166,right,heavy poles sphere,stripes-8,right,right,0.2718987335474594,0.17571731077805453
Data/shape-specificity-stripes-AKM1995M-2019-06-12-14-07-17.csv,AKM1995M,2019-06-12-14-07-17,10,17,0.6610636205623643,left,stripes-2,stripes-4,right,right,0.24203044176101685,0.15181913204014563
Data/shape-specificity-stripes-AKM1995M-2019-06-12-14-07-17.csv,AKM1995M,2019-06-12-14-07-17,10,18,0.5129525527760312,left,stripes-8,heavy poles sphere,right,right,0.23796173368009477,0.16769776057753916
Data/shape-specificity-stripes-AKM1995M-2019-06-12-14-07-17.csv,AKM1995M,2019-06-12-14-07-17,10,19,0.5427601538932787,right,heavy poles sphere,stripes-4,right,right,0.28839281521504745,0.17568496761123242
Data/shape-specificity-stripes-AKM1995M-2019-06-12-14-07-17.csv,AKM1995M,2019-06-12-14-07-17,10,20,0.57582624874564,left,stripes-2,stripes-2,right,left,0.38993387377468025,0.5278376696496707
Data/shape-specificity-stripes-AKM1995M-2019-06-12-14-07-17.csv,AKM1995M,2019-06-12-14-07-17,10,21,0.6002029962381829,right,stripes-2,stripes-8,right,right,0.32051113397938025,0.17587436172743764
Data/shape-specificity-stripes-AKM1995M-2019-06-12-14-07-17.csv,AKM1995M,2019-06-12-14-07-17,10,22,0.60930503810343,right,stripes-8,stripes-4,right,right,0.2588308505282839,0.16777022170936107
Data/shape-specificity-stripes-AKM1995M-2019-06-12-14-07-17.csv,AKM1995M,2019-06-12-14-07-17,10,23,0.540512395498451,left,stripes-4,stripes-8,right,right,0.2678688994647018,0.17587187379194802
Data/shape-specificity-stripes-AKM1995M-2019-06-12-14-07-17.csv,AKM1995M,2019-06-12-14-07-17,10,24,0.5781002112563338,left,heavy poles sphere,heavy poles sphere,right,right,0.23690311697919242,0.15183468163922953
Data/shape-specificity-stripes-AKM1995M-2019-06-12-14-07-17.csv,AKM1995M,2019-06-12-14-07-17,10,25,0.6624096969976841,right,stripes-4,stripes-4,right,right,0.2825977906504704,0.183961708179595
Data/shape-specificity-stripes-AKM1995M-2019-06-12-14-07-17.csv,AKM1995M,2019-06-12-14-07-17,10,26,0.504623868167496,left,stripes-4,stripes-2,right,right,0.2670021648154943,0.16796117078592943
Data/shape-specificity-stripes-AKM1995M-2019-06-12-14-07-17.csv,AKM1995M,2019-06-12-14-07-17,10,27,0.619027073746216,right,stripes-8,stripes-8,right,right,0.44736227486828284,0.1517196146060087
Data/shape-specificity-stripes-AKM1995M-2019-06-12-14-07-17.csv,AKM1995M,2019-06-12-14-07-17,10,28,0.6615588840883433,left,heavy poles sphere,stripes-2,right,right,0.653455727337132,0.19183882405286568
Data/shape-specificity-stripes-AKM1995M-2019-06-12-14-07-17.csv,AKM1995M,2019-06-12-14-07-17,10,29,0.5858967139386392,right,stripes-2,heavy poles sphere,right,right,0.22013971625710838,0.1598520548950546
Data/shape-specificity-stripes-AKM1995M-2019-06-12-14-07-17.csv,AKM1995M,2019-06-12-14-07-17,10,30,0.6601037445554249,left,stripes-4,heavy poles sphere,right,right,0.26711163399249926,0.19183602512475773
Data/shape-specificity-stripes-AKM1995M-2019-06-12-14-07-17.csv,AKM1995M,2019-06-12-14-07-17,10,31,0.6155595544926399,left,stripes-8,stripes-2,right,right,0.2709349693996046,0.17573410434397374
Data/shape-specificity-stripes-AKM1995M-2019-06-12-14-07-17.csv,AKM1995M,2019-06-12-14-07-17,10,32,0.5977874827745495,left,stripes-4,heavy poles sphere,right,right,0.2699258004231524,0.16771797505680297
Data/shape-specificity-stripes-AKM1995M-2019-06-12-14-07-17.csv,AKM1995M,2019-06-12-14-07-17,10,33,0.6254807989576374,left,heavy poles sphere,stripes-8,right,right,0.10018513352588343,0.599977546379705
Data/shape-specificity-stripes-AKM1995M-2019-06-12-14-07-17.csv,AKM1995M,2019-06-12-14-07-17,10,34,0.5441525343735273,right,stripes-2,stripes-8,right,right,0.2656935105615048,0.16793784638684883
Data/shape-specificity-stripes-AKM1995M-2019-06-12-14-07-17.csv,AKM1995M,2019-06-12-14-07-17,10,35,0.6325357147306758,right,stripes-8,stripes-4,right,right,0.3026875615960307,0.1759427799634068
Data/shape-specificity-stripes-AKM1995M-2019-06-12-14-07-17.csv,AKM1995M,2019-06-12-14-07-17,10,36,0.5437243148655994,right,stripes-4,stripes-2,right,right,0.16506770139949367,0.15981691280103405
Data/shape-specificity-stripes-AKM1995M-2019-06-12-14-07-17.csv,AKM1995M,2019-06-12-14-07-17,10,37,0.5441679722495878,left,heavy poles sphere,heavy poles sphere,right,right,0.27627376872897,0.17566444214116927
Data/shape-specificity-stripes-AKM1995M-2019-06-12-14-07-17.csv,AKM1995M,2019-06-12-14-07-17,10,38,0.6418984494012683,right,stripes-8,stripes-8,right,right,0.279856396343348,0.1679406453140473
Data/shape-specificity-stripes-AKM1995M-2019-06-12-14-07-17.csv,AKM1995M,2019-06-12-14-07-17,10,39,0.5163422571476932,right,stripes-4,stripes-4,right,right,0.28023362961539533,0.15983028545633715
Data/shape-specificity-stripes-AKM1995M-2019-06-12-14-07-17.csv,AKM1995M,2019-06-12-14-07-17,10,40,0.6949234464490935,left,stripes-2,stripes-4,right,right,0.20182975241641543,0.15984707902407536
Data/shape-specificity-stripes-AKM1995M-2019-06-12-14-07-17.csv,AKM1995M,2019-06-12-14-07-17,10,41,0.5326861794456643,right,heavy poles sphere,stripes-2,right,right,0.23906388925934152,0.15986356159828574
Data/shape-specificity-stripes-AKM1995M-2019-06-12-14-07-17.csv,AKM1995M,2019-06-12-14-07-17,10,42,0.6847418329736698,right,heavy poles sphere,stripes-4,right,right,0.2679768136822531,0.16781438257021364
Data/shape-specificity-stripes-AKM1995M-2019-06-12-14-07-17.csv,AKM1995M,2019-06-12-14-07-17,10,43,0.5246047369682575,left,stripes-8,stripes-2,right,right,0.30035449975821393,0.1838391773399053
Data/shape-specificity-stripes-AKM1995M-2019-06-12-14-07-17.csv,AKM1995M,2019-06-12-14-07-17,10,44,0.6813511884500796,left,stripes-2,heavy poles sphere,right,right,0.28588715282785415,0.16785916541539336
Data/shape-specificity-stripes-AKM1995M-2019-06-12-14-07-17.csv,AKM1995M,2019-06-12-14-07-17,10,45,0.5720770565831104,right,stripes-8,heavy poles sphere,right,right,0.2856386702360396,0.19183975702799216
Data/shape-specificity-stripes-AKM1995M-2019-06-12-14-07-17.csv,AKM1995M,2019-06-12-14-07-17,10,46,0.6396529667105048,left,stripes-4,stripes-8,right,right,0.2806117958643881,0.17586254403249768
Data/shape-specificity-stripes-AKM1995M-2019-06-12-14-07-17.csv,AKM1995M,2019-06-12-14-07-17,10,47,0.6384898675214037,left,stripes-2,stripes-2,right,left,0.5082010140204147,0.43195448819005833
Data/shape-specificity-stripes-AZN1997w-2019-05-15-11-26-49.csv,AZN1997w,2019-05-15-11-26-49,1,0,0.5544451828875563,right,stripes-8,heavy poles sphere,right,right,0.31026764750004077,3.127696860641663
Data/shape-specificity-stripes-AZN1997w-2019-05-15-11-26-49.csv,AZN1997w,2019-05-15-11-26-49,1,1,0.6898435254077661,left,stripes-2,heavy poles sphere,right,right,0.07036546127528709,0.4395418687872734
Data/shape-specificity-stripes-AZN1997w-2019-05-15-11-26-49.csv,AZN1997w,2019-05-15-11-26-49,1,2,0.698930382338089,left,stripes-4,heavy poles sphere,right,left,0.5256622768856687,0.30369790309305245
Data/shape-specificity-stripes-AZN1997w-2019-05-15-11-26-49.csv,AZN1997w,2019-05-15-11-26-49,1,3,0.5973437532098117,left,heavy poles sphere,stripes-4,right,right,0.2922499096557658,2.359898528937265
Data/shape-specificity-stripes-AZN1997w-2019-05-15-11-26-49.csv,AZN1997w,2019-05-15-11-26-49,1,4,0.6225810507769685,left,stripes-4,stripes-2,right,left,0.4867168320433848,0.34398684122970735
Data/shape-specificity-stripes-AZN1997w-2019-05-15-11-26-49.csv,AZN1997w,2019-05-15-11-26-49,1,5,0.6393771179765243,left,stripes-4,stripes-8,right,right,0.2746756489977997,2.6717338962735084
Data/shape-specificity-stripes-AZN1997w-2019-05-15-11-26-49.csv,AZN1997w,2019-05-15-11-26-49,1,6,0.6110981790118992,right,heavy poles sphere,stripes-2,right,right,0.3782661348259353,3.1596875507302684
Data/shape-specificity-stripes-AZN1997w-2019-05-15-11-26-49.csv,AZN1997w,2019-05-15-11-26-49,1,7,0.6696157007763255,right,stripes-4,stripes-4,right,right,0.29454131210786727,1.6958284533220649
Data/shape-specificity-stripes-AZN1997w-2019-05-15-11-26-49.csv,AZN1997w,2019-05-15-11-26-49,1,8,0.5750391912201183,left,stripes-8,stripes-4,right,right,0.733725227009927,0.43172721612609166
Data/shape-specificity-stripes-AZN1997w-2019-05-15-11-26-49.csv,AZN1997w,2019-05-15-11-26-49,1,9,0.661254605574182,right,heavy poles sphere,heavy poles sphere,right,right,0.518029555609246,1.0158392261473637
Data/shape-specificity-stripes-AZN1997w-2019-05-15-11-26-49.csv,AZN1997w,2019-05-15-11-26-49,1,10,0.5449284474061791,left,stripes-8,stripes-2,right,right,0.41684429596898553,0.5998573160359228
Data/shape-specificity-stripes-AZN1997w-2019-05-15-11-26-49.csv,AZN1997w,2019-05-15-11-26-49,1,11,0.6103655535645248,left,stripes-2,stripes-8,right,right,0.4306356278248131,0.5838296276351684
Data/shape-specificity-stripes-AZN1997w-2019-05-15-11-26-49.csv,AZN1997w,2019-05-15-11-26-49,1,12,0.6546241027017712,left,heavy poles sphere,stripes-8,right,right,0.3878179989542332,0.5438255598355681
Data/shape-specificity-stripes-AZN1997w-2019-05-15-11-26-49.csv,AZN1997w,2019-05-15-11-26-49,1,13,0.5075318270613111,left,stripes-2,stripes-2,right,left,0.7770989128284782,0.5279549233118814
Data/shape-specificity-stripes-AZN1997w-2019-05-15-11-26-49.csv,AZN1997w,2019-05-15-11-26-49,1,14,0.5656794941698552,right,stripes-2,stripes-4,left,right,1.1647069909540733,0.4078214323253633
Data/shape-specificity-stripes-AZN1997w-2019-05-15-11-26-49.csv,AZN1997w,2019-05-15-11-26-49,1,15,0.5630516961790288,left,stripes-8,stripes-8,right,right,0.23018767232861137,2.9117200508289898
Data/shape-specificity-stripes-AZN1997w-2019-05-15-11-26-49.csv,AZN1997w,2019-05-15-11-26-49,1,16,0.501667986421224,left,stripes-2,stripes-4,right,left,0.6016853376986546,1.279755733015918
Data/shape-specificity-stripes-AZN1997w-2019-05-15-11-26-49.csv,AZN1997w,2019-05-15-11-26-49,1,17,0.6230743459388229,right,stripes-8,stripes-4,right,right,0.3635639020767485,2.1437593803511845
Data/shape-specificity-stripes-AZN1997w-2019-05-15-11-26-49.csv,AZN1997w,2019-05-15-11-26-49,1,18,0.6567751400985182,left,stripes-4,stripes-8,left,right,0.018124719716979598,0.4637231931110364
Data/shape-specificity-stripes-AZN1997w-2019-05-15-11-26-49.csv,AZN1997w,2019-05-15-11-26-49,1,19,0.6565485361173655,right,heavy poles sphere,stripes-4,right,right,0.41294567746535904,2.34376074872398
Data/shape-specificity-stripes-AZN1997w-2019-05-15-11-26-49.csv,AZN1997w,2019-05-15-11-26-49,1,20,0.5752758677180019,left,stripes-8,stripes-2,right,right,0.46077217277070304,0.8556942035102111
Data/shape-specificity-stripes-AZN1997w-2019-05-15-11-26-49.csv,AZN1997w,2019-05-15-11-26-49,1,21,0.6426665947743928,right,heavy poles sphere,stripes-8,right,left,0.20556193784068455,0.5838364694991469
Data/shape-specificity-stripes-AZN1997w-2019-05-15-11-26-49.csv,AZN1997w,2019-05-15-11-26-49,1,22,0.6405323610815707,left,heavy poles sphere,stripes-2,left,left,0.3882838676936444,1.8079087593896475
Data/shape-specificity-stripes-AZN1997w-2019-05-15-11-26-49.csv,AZN1997w,2019-05-15-11-26-49,1,23,0.5846978638677366,right,stripes-2,stripes-8,left,right,0.32317357995543716,0.6318337004095156
Data/shape-specificity-stripes-AZN1997w-2019-05-15-11-26-49.csv,AZN1997w,2019-05-15-11-26-49,1,24,0.5679501276745637,left,stripes-8,stripes-8,right,right,0.24507867832653574,1.0638392560031207
